Time,ACC_X,ACC_Y,ACC_Z,GY_X,GY_Y,GY_Z,P
0.0,0.021484375,-0.0078125,1.0,-1.0986328125,0.42724609375,-1.220703125,101308
0.002,0.009765625,-0.01171875,0.99609375,-1.40380859375,0.54931640625,-0.79345703125,101308
0.004,0.025390625,-0.0048828125,0.9775390625,-1.89208984375,0.732421875,-1.8310546875,101308
0.006,0.0029296875,-0.009765625,1.0068359375,-2.13623046875,0.3662109375,-0.91552734375,101308
0.007,0.009765625,-0.005859375,1.0048828125,-2.44140625,0.48828125,-1.15966796875,101308
0.009,0.005859375,-0.01171875,0.9990234375,-0.732421875,0.8544921875,-1.220703125,101308
0.011,0.0078125,-0.0185546875,0.9951171875,-1.220703125,0.67138671875,-1.220703125,101308
0.013,0.0078125,-0.017578125,0.998046875,-1.0986328125,0.67138671875,-0.8544921875,101308
0.015,0.01953125,-0.01171875,1.009765625,-1.40380859375,0.42724609375,-1.3427734375,101308
0.017,0.0205078125,-0.0126953125,0.9912109375,-1.0986328125,1.15966796875,0.1220703125,101308
0.019,0.017578125,-0.0048828125,1.0009765625,-1.03759765625,1.15966796875,-1.220703125,101308
0.022,0.0146484375,0.005859375,0.9736328125,0.18310546875,0.48828125,-1.77001953125,101308
0.023,0.0087890625,-0.0009765625,0.98828125,-0.1220703125,0.54931640625,-2.0751953125,101308
0.025,0.017578125,-0.00390625,0.9814453125,-1.40380859375,0.732421875,-2.01416015625,101308
0.027,0.0166015625,0.001953125,0.9921875,-0.6103515625,0.91552734375,-0.732421875,101308
0.029,0.017578125,-0.0009765625,0.9951171875,-1.220703125,0.79345703125,-0.30517578125,101308
0.031,0.005859375,-0.005859375,0.9794921875,-1.28173828125,0.79345703125,-1.52587890625,101308
0.033,0.005859375,0.015625,0.994140625,-2.01416015625,1.0986328125,-0.8544921875,101308
0.035,0.005859375,0.0126953125,1.0,-2.62451171875,0.3662109375,-0.9765625,101308
0.037,0.01171875,0.01953125,1.0126953125,-2.62451171875,0.67138671875,-0.732421875,101308
0.039,0.0,0.00390625,1.0361328125,-2.62451171875,1.28173828125,-0.9765625,101308
0.041,0.0029296875,0.0009765625,1.0078125,-2.13623046875,0.9765625,-1.220703125,101308
0.043,0.009765625,0.0068359375,0.9970703125,-0.8544921875,0.6103515625,-1.15966796875,101308
0.045,0.0048828125,0.00390625,0.9892578125,-0.91552734375,0.8544921875,-1.708984375,101308
0.047,0.01171875,0.0,0.9853515625,-0.8544921875,0.8544921875,-1.220703125,101308
0.049,0.0234375,0.0009765625,0.9970703125,-1.0986328125,0.79345703125,-1.52587890625,101308
0.052,0.013671875,-0.0087890625,0.982421875,-2.13623046875,0.0,-1.15966796875,101308
0.054,0.0146484375,-0.02734375,0.98046875,-3.2958984375,0.67138671875,-1.15966796875,101308
0.056,0.0185546875,-0.0166015625,0.9970703125,-3.41796875,0.48828125,-0.732421875,101308
0.057,0.0087890625,-0.0205078125,0.99609375,-3.41796875,0.42724609375,-0.9765625,101308
0.059,0.0166015625,-0.01171875,1.01171875,-2.99072265625,0.48828125,-1.52587890625,101308
0.063,-0.0009765625,-0.0205078125,1.0048828125,-2.3193359375,0.3662109375,-0.42724609375,101308
0.065,0.0078125,-0.0126953125,0.994140625,-1.953125,0.6103515625,-1.89208984375,101308
0.066,0.0087890625,-0.00390625,1.0068359375,-1.64794921875,0.67138671875,-1.52587890625,101308
0.068,0.0009765625,0.0087890625,1.001953125,-0.732421875,0.54931640625,-1.5869140625,101308
0.07,0.0068359375,-0.0068359375,0.9931640625,-0.30517578125,-0.1220703125,-1.0986328125,101308
0.071,0.0107421875,0.001953125,0.9853515625,-0.732421875,0.48828125,-1.64794921875,101308
0.073,0.01953125,0.0,0.9736328125,-0.6103515625,1.03759765625,-1.28173828125,101308
0.075,0.0107421875,0.0,0.9697265625,-1.46484375,0.9765625,-1.0986328125,101308
0.077,0.013671875,0.0107421875,0.98828125,-1.953125,0.8544921875,-1.0986328125,101308
0.079,0.005859375,-0.001953125,1.0029296875,-2.13623046875,0.6103515625,-1.03759765625,101308
0.081,0.0087890625,-0.0009765625,0.9931640625,-2.5634765625,0.54931640625,-1.3427734375,101308
0.082,0.01171875,-0.001953125,1.009765625,-1.64794921875,-0.1220703125,-0.8544921875,101308
0.084,0.009765625,-0.0166015625,0.9990234375,-1.77001953125,0.732421875,-0.9765625,101308
0.086,0.0126953125,-0.02734375,0.998046875,-0.48828125,0.244140625,-0.91552734375,101308
0.088,0.0146484375,-0.0263671875,1.0029296875,-0.79345703125,0.732421875,-1.77001953125,101308
0.09,0.0166015625,-0.013671875,0.9931640625,-0.8544921875,0.244140625,-1.5869140625,101308
0.093,0.0126953125,-0.0087890625,1.0029296875,-1.220703125,0.30517578125,-0.91552734375,101308
0.095,0.0087890625,-0.0146484375,0.9921875,-1.15966796875,1.220703125,-1.0986328125,101308
0.097,0.0087890625,-0.015625,0.98828125,-1.3427734375,0.67138671875,-0.42724609375,101308
0.099,0.0166015625,-0.00390625,0.974609375,-1.64794921875,0.79345703125,-1.52587890625,101308
0.1,0.0205078125,-0.0068359375,1.0068359375,-1.46484375,0.48828125,-0.42724609375,101308
0.102,0.0205078125,0.0048828125,1.009765625,-1.64794921875,0.79345703125,-0.91552734375,101308
0.104,0.001953125,-0.0048828125,1.0146484375,-1.46484375,0.6103515625,-1.8310546875,101308
0.106,0.0107421875,-0.00390625,1.0009765625,-1.15966796875,0.18310546875,-1.52587890625,101308
0.107,0.009765625,-0.0009765625,0.984375,-1.03759765625,0.79345703125,-1.0986328125,101308
0.109,0.0068359375,-0.0029296875,1.00390625,-1.708984375,0.6103515625,-1.46484375,101308
0.111,0.005859375,0.0078125,1.017578125,-1.15966796875,0.244140625,-1.15966796875,101308
0.113,0.00390625,0.009765625,1.001953125,-1.708984375,0.732421875,-0.8544921875,101308
0.115,0.009765625,-0.0078125,1.0029296875,-2.25830078125,0.06103515625,-1.220703125,101308
0.117,0.021484375,-0.01171875,1.0107421875,-2.197265625,0.42724609375,-0.91552734375,101308
0.119,0.0068359375,-0.017578125,0.9794921875,-1.708984375,0.3662109375,-1.220703125,101308
0.121,0.01171875,-0.013671875,0.9931640625,-1.3427734375,0.3662109375,-0.30517578125,101308
0.123,0.0,-0.009765625,0.9765625,-0.6103515625,0.67138671875,-1.220703125,101308
0.125,0.0107421875,-0.0166015625,0.98046875,-0.48828125,0.0,-1.40380859375,101308
0.127,0.0068359375,-0.0224609375,0.953125,-0.9765625,1.03759765625,-1.0986328125,101308
0.129,0.015625,-0.0029296875,0.9638671875,-1.5869140625,0.67138671875,-1.0986328125,101308
0.131,0.0048828125,-0.0107421875,0.958984375,-2.0751953125,0.48828125,-0.67138671875,101308
0.132,0.013671875,-0.001953125,0.986328125,-2.50244140625,0.54931640625,-0.91552734375,101308
0.134,0.0146484375,-0.0009765625,0.994140625,-2.62451171875,0.8544921875,-1.03759765625,101308
0.136,0.005859375,-0.0009765625,0.9912109375,-2.8076171875,0.6103515625,-0.9765625,101308
0.138,0.0068359375,0.0029296875,1.00390625,-3.11279296875,0.732421875,-0.91552734375,101308
0.14,0.001953125,0.0087890625,0.9892578125,-2.13623046875,0.30517578125,-1.220703125,101308
0.142,0.009765625,0.0107421875,1.0087890625,-2.3193359375,1.28173828125,-0.91552734375,101308
0.144,0.013671875,0.0087890625,1.017578125,-1.953125,1.03759765625,-1.220703125,101308
0.146,0.01171875,0.0107421875,1.0234375,-0.732421875,0.79345703125,-1.708984375,101308
0.148,0.0068359375,0.00390625,1.0087890625,-0.30517578125,0.9765625,-1.28173828125,101308
0.149,0.0185546875,0.0087890625,0.99609375,-0.54931640625,0.79345703125,-0.79345703125,101308
0.151,0.0166015625,0.013671875,0.9921875,-0.42724609375,0.30517578125,-1.52587890625,101308
0.154,0.017578125,0.001953125,0.9873046875,-1.64794921875,1.15966796875,-0.8544921875,101308
0.156,0.0107421875,-0.0048828125,0.9990234375,-1.953125,0.79345703125,-1.52587890625,101308
0.158,0.0078125,-0.0234375,1.0068359375,-2.50244140625,1.03759765625,-1.03759765625,101308
0.16,0.0234375,-0.0126953125,1.013671875,-2.01416015625,0.8544921875,-0.91552734375,101308
0.162,0.0078125,-0.0283203125,0.9970703125,-1.3427734375,0.244140625,-1.40380859375,101308
0.163,0.0146484375,-0.0166015625,1.0029296875,-2.0751953125,0.30517578125,-1.52587890625,101308
0.165,0.0205078125,-0.0234375,1.0107421875,-2.5634765625,1.03759765625,-1.40380859375,101308
0.166,0.0146484375,-0.0322265625,0.9990234375,-1.52587890625,1.28173828125,-0.8544921875,101308
0.168,0.015625,-0.029296875,0.9873046875,-1.64794921875,1.0986328125,-1.5869140625,101308
0.17,0.0126953125,-0.0380859375,0.9775390625,-1.28173828125,0.91552734375,-1.40380859375,101308
0.172,0.0087890625,-0.0224609375,0.9833984375,-1.46484375,0.18310546875,-1.40380859375,101308
0.174,0.0087890625,-0.025390625,0.9833984375,-2.38037109375,0.48828125,-0.79345703125,101308
0.176,0.017578125,-0.005859375,0.994140625,-2.01416015625,0.30517578125,-1.52587890625,101308
0.178,-0.0048828125,-0.015625,0.9931640625,-2.25830078125,0.67138671875,-1.28173828125,101308
0.18,0.0126953125,-0.0009765625,0.990234375,-2.38037109375,0.48828125,-1.40380859375,101308
0.181,0.013671875,0.001953125,1.001953125,-2.685546875,0.42724609375,-0.91552734375,101308
0.184,0.0068359375,0.0009765625,1.009765625,-1.953125,0.91552734375,-1.52587890625,101308
0.186,0.015625,0.0166015625,1.0185546875,-2.01416015625,0.06103515625,-0.54931640625,101308
0.188,0.017578125,0.0126953125,1.01171875,-1.3427734375,0.79345703125,-1.52587890625,101308
0.19,0.0048828125,0.0126953125,0.99609375,-1.15966796875,0.244140625,-1.0986328125,101308
0.192,0.0166015625,-0.0029296875,1.00390625,-0.732421875,1.0986328125,-1.5869140625,101308
0.193,0.013671875,0.0146484375,0.9853515625,0.1220703125,0.0,-1.64794921875,101308
0.195,0.0126953125,0.0087890625,0.978515625,0.6103515625,1.15966796875,-0.48828125,101308
0.197,0.001953125,-0.0009765625,0.9814453125,-0.6103515625,0.54931640625,-0.9765625,101308
0.199,0.0087890625,-0.0126953125,1.0029296875,-1.89208984375,-0.06103515625,-1.64794921875,101308
0.201,0.0146484375,-0.0185546875,0.986328125,-1.28173828125,0.91552734375,-1.3427734375,101308
0.203,0.0234375,-0.0361328125,0.982421875,-1.15966796875,1.0986328125,-1.15966796875,101308
0.205,0.009765625,-0.0322265625,0.982421875,-1.03759765625,0.9765625,-0.9765625,101308
0.207,0.0087890625,-0.0126953125,0.984375,-1.708984375,1.0986328125,-1.52587890625,101308
0.209,0.0126953125,-0.0146484375,0.9970703125,-0.67138671875,0.67138671875,-1.28173828125,101308
0.211,0.0107421875,-0.0078125,1.001953125,-0.6103515625,0.30517578125,-1.46484375,101308
0.213,0.0126953125,0.0,0.9951171875,-0.8544921875,0.42724609375,-1.15966796875,101308
0.216,0.0068359375,-0.0126953125,1.0,-1.28173828125,0.18310546875,-1.52587890625,101308
0.217,0.0244140625,-0.0029296875,1.0,-1.708984375,0.67138671875,-1.40380859375,101308
0.219,0.0126953125,-0.00390625,0.9970703125,-1.953125,1.28173828125,-0.8544921875,101308
0.221,0.015625,0.0107421875,1.00390625,-2.99072265625,0.732421875,-1.8310546875,101308
0.223,0.0185546875,-0.0048828125,1.0048828125,-2.74658203125,0.67138671875,-1.28173828125,101308
0.224,0.0126953125,-0.009765625,1.0107421875,-2.25830078125,0.1220703125,-0.91552734375,101308
0.226,0.01953125,0.01171875,1.013671875,-2.38037109375,0.732421875,-1.40380859375,101308
0.228,0.0068359375,0.0087890625,1.0224609375,-2.62451171875,0.3662109375,-1.40380859375,101308
0.23,0.017578125,0.001953125,1.025390625,-1.64794921875,0.91552734375,-1.0986328125,101308
0.232,0.009765625,-0.0029296875,1.0,-0.8544921875,0.42724609375,-1.03759765625,101308
0.235,0.015625,-0.0048828125,0.994140625,-1.52587890625,-0.30517578125,-0.8544921875,101308
0.237,0.0009765625,-0.0146484375,0.9853515625,-1.0986328125,0.42724609375,-1.46484375,101308
0.239,0.0087890625,-0.0263671875,0.9990234375,-1.15966796875,0.8544921875,-0.9765625,101308
0.241,0.0224609375,-0.02734375,0.9853515625,-1.5869140625,1.52587890625,-1.15966796875,101308
0.242,0.0185546875,-0.0166015625,0.970703125,-1.64794921875,0.732421875,-1.15966796875,101308
0.246,0.01953125,-0.025390625,0.978515625,-2.0751953125,0.732421875,-1.0986328125,101308
0.248,0.0185546875,-0.021484375,0.98046875,-1.953125,0.91552734375,-1.52587890625,101308
0.249,0.0244140625,0.001953125,0.9775390625,-2.62451171875,0.91552734375,-0.9765625,101308
0.251,0.013671875,-0.001953125,0.984375,-1.52587890625,1.15966796875,-1.3427734375,101308
0.253,0.001953125,0.001953125,0.984375,-2.0751953125,0.18310546875,-1.15966796875,101308
0.256,0.0146484375,0.0009765625,0.9892578125,-2.50244140625,0.3662109375,-1.46484375,101308
0.258,0.001953125,0.01171875,1.0126953125,-1.953125,0.244140625,-0.8544921875,101308
0.26,0.00390625,0.0234375,1.0263671875,-1.5869140625,0.6103515625,-0.67138671875,101308
0.262,0.00390625,0.005859375,1.0029296875,-1.953125,0.3662109375,-1.3427734375,101308
0.264,-0.0048828125,0.009765625,1.0,-1.28173828125,-0.18310546875,-0.67138671875,101308
0.265,0.001953125,0.0078125,1.0068359375,-1.52587890625,0.42724609375,-0.6103515625,101308
0.267,0.005859375,0.01171875,1.0126953125,-2.01416015625,1.220703125,-1.15966796875,101308
0.269,0.009765625,0.0029296875,1.0126953125,-1.3427734375,0.48828125,-1.220703125,101308
0.271,0.0048828125,-0.0078125,1.0185546875,-0.42724609375,0.9765625,-1.220703125,101308
0.273,0.0126953125,-0.009765625,1.0087890625,0.30517578125,0.3662109375,-0.8544921875,101308
0.274,0.025390625,-0.015625,0.9912109375,0.54931640625,0.67138671875,-2.0751953125,101308
0.276,0.005859375,-0.0224609375,0.9609375,-0.54931640625,0.48828125,-1.708984375,101308
0.278,0.0107421875,-0.0166015625,0.984375,-0.91552734375,0.48828125,-1.28173828125,101308
0.28,0.013671875,-0.01953125,0.9892578125,-2.13623046875,0.48828125,-1.28173828125,101308
0.282,0.0244140625,-0.009765625,0.9814453125,-1.8310546875,0.1220703125,-0.732421875,101308
0.284,0.015625,-0.0126953125,0.97265625,-1.40380859375,-0.06103515625,-1.15966796875,101308
0.286,0.005859375,-0.0185546875,0.974609375,-1.40380859375,-0.06103515625,-1.3427734375,101308
0.288,0.0146484375,-0.0078125,0.9775390625,-2.38037109375,0.48828125,-0.6103515625,101308
0.29,0.0146484375,0.0029296875,0.9921875,-1.708984375,0.54931640625,-1.0986328125,101308
0.291,0.013671875,-0.0087890625,0.9921875,-1.77001953125,0.3662109375,-1.46484375,101308
0.293,0.013671875,-0.0078125,0.998046875,-2.44140625,0.8544921875,-1.52587890625,101308
0.296,0.0166015625,-0.0087890625,0.990234375,-1.708984375,1.3427734375,-1.15966796875,101308
0.298,0.0068359375,-0.001953125,0.986328125,-2.38037109375,0.54931640625,-0.6103515625,101308
0.299,0.0185546875,0.0087890625,0.998046875,-2.197265625,0.91552734375,-1.0986328125,101308
0.301,0.0224609375,0.0205078125,1.01171875,-2.0751953125,0.54931640625,-1.40380859375,101308
0.303,0.017578125,0.0205078125,1.0107421875,-1.77001953125,0.6103515625,-1.15966796875,101308
0.306,0.021484375,-0.0029296875,0.9931640625,-0.3662109375,1.0986328125,-1.64794921875,101308
0.308,0.0,-0.01171875,0.9833984375,-1.0986328125,0.6103515625,-1.0986328125,101308
0.31,0.0166015625,-0.00390625,0.9990234375,-1.03759765625,0.8544921875,-1.3427734375,101308
0.312,0.0068359375,-0.0224609375,0.9990234375,-1.28173828125,0.244140625,-1.03759765625,101308
0.314,0.0078125,-0.0078125,0.9921875,-2.197265625,0.3662109375,-0.79345703125,101308
0.317,0.001953125,-0.0205078125,0.994140625,-1.220703125,0.244140625,-1.52587890625,101308
0.319,0.01953125,-0.0107421875,0.9697265625,-0.67138671875,0.8544921875,-2.01416015625,101308
0.321,0.01171875,-0.015625,0.9951171875,-3.0517578125,0.54931640625,-1.0986328125,101308
0.323,0.01171875,-0.0185546875,0.9912109375,-2.62451171875,0.48828125,-1.52587890625,101308
0.324,0.0166015625,-0.017578125,0.9990234375,-2.13623046875,0.91552734375,-1.52587890625,101308
0.327,0.021484375,-0.0087890625,0.9892578125,-1.15966796875,0.91552734375,-1.0986328125,101308
0.329,0.009765625,-0.0068359375,0.9736328125,-0.244140625,1.15966796875,-1.28173828125,101308
0.331,0.0068359375,0.009765625,0.978515625,-1.40380859375,0.79345703125,-0.9765625,101308
0.333,0.01171875,0.001953125,0.9833984375,-1.52587890625,0.48828125,-1.15966796875,101308
0.335,0.0087890625,0.0126953125,0.9892578125,-2.13623046875,1.03759765625,-1.3427734375,101308
0.336,0.001953125,-0.001953125,0.99609375,-1.708984375,0.91552734375,-1.0986328125,101308
0.338,0.0146484375,-0.01171875,0.9970703125,-1.89208984375,0.48828125,-0.732421875,101308
0.34,0.0048828125,-0.00390625,0.9853515625,-2.197265625,0.54931640625,-0.9765625,101308
0.342,0.0,0.001953125,0.9892578125,-3.2958984375,0.244140625,-1.28173828125,101308
0.344,0.01171875,0.0107421875,1.01171875,-2.74658203125,1.0986328125,-1.953125,101308
0.346,0.0087890625,-0.0087890625,1.033203125,-2.0751953125,0.42724609375,-0.54931640625,101308
0.348,-0.001953125,-0.017578125,1.017578125,-0.9765625,1.15966796875,-1.40380859375,101308
0.349,0.0048828125,-0.0009765625,1.0048828125,-0.79345703125,0.42724609375,-0.91552734375,101308
0.351,0.009765625,-0.005859375,0.9931640625,-0.91552734375,0.79345703125,-1.220703125,101308
0.353,0.0126953125,-0.015625,1.005859375,-0.732421875,0.732421875,-1.52587890625,101308
0.355,0.015625,-0.001953125,1.001953125,-0.79345703125,0.79345703125,-1.3427734375,101308
0.358,0.009765625,-0.0087890625,0.970703125,-0.48828125,0.54931640625,-1.15966796875,101308
0.36,0.0048828125,-0.0146484375,0.9638671875,-0.48828125,0.42724609375,-1.8310546875,101308
0.362,0.015625,0.0048828125,0.9619140625,-1.46484375,0.54931640625,-1.220703125,101308
0.364,0.001953125,-0.0048828125,0.98828125,-1.77001953125,0.8544921875,-0.91552734375,101308
0.366,0.0029296875,0.0009765625,1.0048828125,-1.52587890625,0.8544921875,-1.5869140625,101308
0.367,0.015625,0.001953125,0.982421875,-1.89208984375,0.18310546875,-0.54931640625,101308
0.369,0.005859375,-0.005859375,0.9912109375,-1.89208984375,0.732421875,-1.708984375,101308
0.371,0.0068359375,0.00390625,1.0,-2.38037109375,0.42724609375,-1.77001953125,101308
0.373,0.0087890625,-0.001953125,0.994140625,-1.953125,0.732421875,-1.52587890625,101308
0.374,0.017578125,-0.0029296875,0.9951171875,-1.220703125,0.48828125,-1.15966796875,101308
0.377,0.005859375,0.001953125,0.9912109375,-0.8544921875,1.28173828125,-1.15966796875,101308
0.379,0.0126953125,0.00390625,0.998046875,-1.28173828125,0.54931640625,-1.220703125,101308
0.381,0.0205078125,0.001953125,0.9921875,0.06103515625,1.28173828125,-0.732421875,101308
0.383,0.0078125,0.0029296875,0.9892578125,-0.91552734375,0.79345703125,-1.708984375,101308
0.385,0.009765625,-0.0009765625,0.9990234375,-0.91552734375,0.8544921875,-1.28173828125,101308
0.387,0.009765625,-0.0029296875,0.9921875,-1.220703125,0.30517578125,-1.15966796875,101308
0.389,0.0078125,-0.0048828125,0.9970703125,-2.01416015625,1.28173828125,-1.28173828125,101308
0.391,0.0087890625,-0.0263671875,1.0205078125,-2.62451171875,0.0,-0.732421875,101308
0.392,0.005859375,-0.0263671875,1.009765625,-2.3193359375,0.54931640625,-1.708984375,101308
0.394,0.01953125,-0.015625,1.00390625,-2.3193359375,0.732421875,-1.03759765625,101308
0.396,0.017578125,-0.005859375,0.9990234375,-1.220703125,0.9765625,-1.15966796875,101308
0.398,-0.0009765625,-0.0048828125,1.0009765625,-1.8310546875,0.0,-1.28173828125,101308
0.4,0.0048828125,-0.0244140625,0.9970703125,-1.8310546875,0.18310546875,-1.953125,101308
0.402,0.013671875,-0.0234375,1.0166015625,-1.8310546875,0.6103515625,-1.5869140625,101308
0.404,0.009765625,-0.0078125,1.0048828125,-1.953125,0.67138671875,-0.67138671875,101308
0.406,0.0146484375,-0.0048828125,0.994140625,-2.50244140625,0.6103515625,-1.15966796875,101308
0.407,0.0126953125,-0.001953125,1.0078125,-1.953125,0.6103515625,-2.13623046875,101308
0.409,0.0185546875,-0.00390625,0.9931640625,-1.46484375,0.79345703125,-1.220703125,101308
0.411,0.0126953125,0.001953125,0.9736328125,-1.64794921875,1.3427734375,-1.64794921875,101308
0.413,0.0068359375,0.0068359375,1.00390625,-2.197265625,0.732421875,-1.220703125,101308
0.415,0.0146484375,0.0068359375,1.0,-1.64794921875,0.6103515625,-1.52587890625,101308
0.417,0.0166015625,0.001953125,0.98828125,-2.25830078125,0.67138671875,-0.91552734375,101308
0.419,0.005859375,-0.005859375,0.986328125,-1.708984375,0.42724609375,-1.40380859375,101308
0.421,0.0048828125,-0.0126953125,0.9970703125,-2.25830078125,0.79345703125,-1.46484375,101308
0.423,0.0146484375,-0.015625,0.9775390625,-1.52587890625,0.91552734375,-1.220703125,101308
0.424,0.017578125,-0.0048828125,0.9892578125,-1.77001953125,0.48828125,-1.220703125,101308
0.426,0.0146484375,-0.009765625,1.0009765625,-1.64794921875,0.79345703125,-1.15966796875,101308
0.428,0.017578125,-0.0048828125,1.009765625,-1.28173828125,0.732421875,-0.9765625,101308
0.43,0.017578125,-0.0087890625,0.990234375,-1.46484375,0.3662109375,-1.5869140625,101308
0.432,0.017578125,-0.00390625,0.9833984375,-1.15966796875,0.3662109375,-1.46484375,101308
0.433,0.0078125,-0.0009765625,0.9921875,-1.3427734375,1.03759765625,-1.46484375,101308
0.435,0.0234375,-0.005859375,1.0146484375,-0.732421875,0.8544921875,-1.03759765625,101308
0.437,0.0107421875,0.0029296875,1.0048828125,-0.6103515625,0.30517578125,-1.3427734375,101308
0.439,0.0107421875,-0.0087890625,1.001953125,0.30517578125,0.48828125,-1.0986328125,101308
0.441,0.0146484375,0.0,0.984375,-1.46484375,0.67138671875,-1.5869140625,101308
0.443,0.0166015625,-0.001953125,0.990234375,-1.0986328125,0.79345703125,-2.01416015625,101308
0.445,0.013671875,-0.0048828125,0.990234375,-0.91552734375,0.91552734375,-1.3427734375,101308
0.447,0.017578125,-0.005859375,1.005859375,-0.6103515625,1.03759765625,-1.708984375,101308
0.449,0.0166015625,-0.005859375,1.0048828125,-1.40380859375,0.42724609375,-1.46484375,101308
0.451,0.013671875,-0.0244140625,1.0009765625,-1.03759765625,0.48828125,-0.67138671875,101308
0.453,0.01171875,-0.015625,0.9931640625,-1.28173828125,0.18310546875,-1.3427734375,101308
0.455,0.0068359375,-0.015625,0.99609375,-1.40380859375,0.54931640625,-1.28173828125,101308
0.457,0.013671875,-0.00390625,0.9931640625,-0.54931640625,0.244140625,-1.3427734375,101308
0.458,0.0107421875,0.0029296875,0.99609375,-0.54931640625,0.30517578125,-1.220703125,101308
0.46,0.0068359375,-0.0009765625,0.986328125,-1.3427734375,0.79345703125,-1.15966796875,101308
0.462,0.015625,0.015625,0.984375,-1.708984375,0.9765625,-0.91552734375,101308
0.464,0.0078125,0.0,0.9931640625,-1.64794921875,0.732421875,-1.3427734375,101308
0.466,0.009765625,-0.01171875,0.9873046875,-2.25830078125,1.0986328125,-1.52587890625,101308
0.469,0.015625,-0.0029296875,0.9951171875,-2.5634765625,0.244140625,-1.708984375,101308
0.471,0.0224609375,-0.00390625,1.0029296875,-2.9296875,0.1220703125,-0.732421875,101308
0.473,0.021484375,0.0029296875,0.99609375,-2.9296875,0.42724609375,-0.91552734375,101308
0.474,0.0078125,0.0126953125,0.994140625,-0.6103515625,1.0986328125,-0.732421875,101308
0.476,0.0146484375,0.0078125,1.0009765625,-2.197265625,0.67138671875,-0.67138671875,101308
0.478,0.0205078125,0.00390625,0.9921875,-2.197265625,0.6103515625,-1.3427734375,101308
0.48,0.0263671875,0.0,0.9990234375,-1.8310546875,0.48828125,-1.89208984375,101308
0.482,0.0205078125,0.0,0.998046875,-2.01416015625,0.54931640625,-1.40380859375,101308
0.484,0.01953125,-0.0107421875,1.00390625,-2.197265625,0.48828125,-1.0986328125,101308
0.486,0.015625,0.0009765625,0.9921875,-2.38037109375,0.1220703125,-0.8544921875,101308
0.488,0.0146484375,0.001953125,1.009765625,-3.173828125,0.79345703125,-0.9765625,101308
0.489,0.01171875,0.0048828125,0.9951171875,-2.01416015625,1.220703125,-1.15966796875,101308
0.49,0.01171875,0.0087890625,1.005859375,-1.40380859375,1.0986328125,-1.15966796875,101308
0.492,0.0048828125,-0.00390625,1.005859375,-1.953125,1.15966796875,-1.15966796875,101308
0.494,0.013671875,-0.01171875,0.994140625,-2.25830078125,0.244140625,-1.15966796875,101308
0.496,0.013671875,-0.0234375,0.9912109375,-1.8310546875,1.220703125,-1.220703125,101308
0.498,0.001953125,-0.02734375,0.978515625,-1.3427734375,0.732421875,-0.9765625,101308
0.5,0.0146484375,-0.0205078125,0.97265625,-1.52587890625,1.0986328125,-1.3427734375,101308
0.502,0.0107421875,-0.0146484375,0.9833984375,-1.708984375,0.9765625,-0.9765625,101308
0.504,0.009765625,-0.0185546875,0.96484375,-0.48828125,0.18310546875,-1.953125,101308
0.506,0.0107421875,-0.0126953125,0.9736328125,-1.52587890625,0.42724609375,-1.3427734375,101308
0.507,0.001953125,-0.013671875,0.978515625,-1.46484375,-0.06103515625,-0.6103515625,101308
0.511,0.017578125,-0.0166015625,0.9990234375,-2.25830078125,0.42724609375,-0.6103515625,101308
0.513,0.0166015625,-0.0185546875,1.0,-2.38037109375,0.54931640625,-1.220703125,101308
0.515,0.009765625,-0.0107421875,1.0009765625,-2.8076171875,1.15966796875,-0.9765625,101308
0.516,0.0234375,-0.0068359375,1.01171875,-2.62451171875,0.732421875,-1.40380859375,101308
0.518,0.015625,0.0048828125,1.021484375,-3.173828125,0.48828125,-1.220703125,101308
0.519,0.017578125,0.0078125,1.025390625,-2.86865234375,0.732421875,-1.708984375,101308
0.521,0.0185546875,0.0029296875,1.029296875,-1.8310546875,0.244140625,-1.15966796875,101308
0.523,0.01171875,0.0126953125,1.0146484375,-0.8544921875,0.732421875,-0.8544921875,101308
0.525,0.0107421875,0.0146484375,1.0078125,0.0,0.3662109375,-1.77001953125,101308
0.527,0.021484375,0.0087890625,1.005859375,-1.40380859375,0.48828125,-1.3427734375,101308
0.529,0.0166015625,0.0009765625,0.9970703125,0.1220703125,0.30517578125,-1.40380859375,101308
0.531,0.0068359375,0.0068359375,0.98828125,-0.06103515625,0.244140625,-1.46484375,101308
0.533,0.013671875,0.001953125,0.974609375,0.30517578125,0.42724609375,-1.46484375,101308
0.534,0.001953125,-0.0048828125,0.9658203125,-1.3427734375,0.732421875,-1.52587890625,101308
0.536,-0.001953125,-0.01171875,0.990234375,-2.197265625,1.28173828125,-0.91552734375,101308
0.538,0.0146484375,-0.01171875,0.982421875,-2.3193359375,0.06103515625,-2.13623046875,101308
0.54,0.0126953125,-0.017578125,0.984375,-0.91552734375,0.67138671875,-0.9765625,101308
0.542,0.01171875,-0.009765625,0.978515625,-1.40380859375,0.6103515625,-1.15966796875,101308
0.544,0.0126953125,-0.0185546875,0.98828125,-2.0751953125,0.54931640625,-1.46484375,101308
0.546,0.0146484375,-0.0029296875,0.990234375,-2.5634765625,0.3662109375,-1.220703125,101308
0.548,0.00390625,-0.0166015625,0.998046875,-1.77001953125,0.54931640625,-1.52587890625,101308
0.55,0.0166015625,-0.001953125,1.0009765625,-1.28173828125,1.3427734375,-0.8544921875,101308
0.552,0.0078125,-0.005859375,1.00390625,-1.15966796875,0.732421875,-0.9765625,101308
0.554,0.01953125,-0.0029296875,0.9990234375,-1.40380859375,0.732421875,-1.15966796875,101308
0.556,0.015625,0.0048828125,1.0068359375,-0.8544921875,1.03759765625,-0.9765625,101308
0.558,0.0126953125,0.009765625,1.009765625,-1.28173828125,0.79345703125,-1.89208984375,101308
0.56,0.0078125,0.0146484375,0.9970703125,-1.46484375,0.3662109375,-1.77001953125,101308
0.562,0.0,0.0078125,0.9970703125,-1.220703125,1.03759765625,-1.8310546875,101308
0.564,0.0048828125,0.005859375,1.0107421875,-1.5869140625,1.03759765625,-1.46484375,101308
0.566,0.0087890625,0.00390625,1.0078125,-2.3193359375,-0.30517578125,-1.28173828125,101308
0.568,0.0126953125,0.0048828125,1.0,-1.52587890625,1.15966796875,-0.9765625,101308
0.571,0.009765625,-0.001953125,1.0009765625,-1.77001953125,1.0986328125,-1.15966796875,101308
0.573,0.01953125,0.0,0.9892578125,-1.46484375,0.244140625,-1.708984375,101308
0.575,0.017578125,-0.017578125,0.986328125,-2.13623046875,1.15966796875,-1.3427734375,101308
0.577,0.01953125,-0.005859375,0.9951171875,-1.77001953125,0.42724609375,-0.79345703125,101308
0.579,0.009765625,-0.0087890625,0.9833984375,-1.52587890625,0.732421875,-1.15966796875,101308
0.582,0.009765625,-0.0146484375,0.984375,-1.28173828125,0.8544921875,-1.220703125,101308
0.584,0.013671875,-0.0205078125,0.974609375,-1.52587890625,0.9765625,-0.67138671875,101308
0.586,0.015625,-0.00390625,0.974609375,-2.44140625,1.15966796875,-1.3427734375,101308
0.588,0.005859375,-0.013671875,0.9833984375,-2.38037109375,0.8544921875,-1.220703125,101308
0.59,0.0087890625,-0.0068359375,1.0029296875,-2.74658203125,0.54931640625,-1.64794921875,101308
0.591,0.0078125,-0.0078125,1.0068359375,-3.11279296875,0.67138671875,-1.220703125,101308
0.592,0.0078125,-0.0029296875,0.9970703125,-2.01416015625,-0.06103515625,-1.64794921875,101308
0.594,0.0107421875,-0.005859375,0.9853515625,-1.8310546875,1.28173828125,-1.28173828125,101308
0.596,0.005859375,-0.00390625,0.9892578125,-2.8076171875,0.67138671875,-1.220703125,101308
0.598,0.0087890625,0.0087890625,1.0009765625,-2.9296875,1.28173828125,-0.732421875,101308
0.6,0.0146484375,-0.001953125,1.013671875,-1.708984375,0.732421875,-1.8310546875,101308
0.602,0.0048828125,-0.015625,1.01171875,-1.46484375,0.79345703125,-1.03759765625,101308
0.604,0.0078125,-0.015625,0.9853515625,-1.3427734375,0.54931640625,-1.03759765625,101308
0.606,0.0107421875,-0.0146484375,1.0029296875,-1.89208984375,0.79345703125,-1.15966796875,101308
0.608,0.015625,-0.009765625,1.01171875,-2.9296875,0.48828125,-1.28173828125,101308
0.609,0.0087890625,-0.013671875,1.0,-1.77001953125,1.15966796875,-1.46484375,101308
0.612,0.0166015625,-0.0146484375,1.0009765625,-1.15966796875,0.732421875,-1.46484375,101308
0.614,0.00390625,0.0029296875,0.9833984375,-0.9765625,0.8544921875,-1.5869140625,101308
0.616,0.0107421875,0.001953125,0.978515625,-0.91552734375,0.9765625,-1.46484375,101308
0.618,0.005859375,-0.005859375,0.9794921875,-1.28173828125,0.67138671875,-0.79345703125,101308
0.62,0.0078125,-0.009765625,0.9765625,-1.28173828125,0.18310546875,-1.03759765625,101308
0.621,0.009765625,-0.0078125,0.98828125,-1.28173828125,0.732421875,-1.708984375,101308
0.623,0.01171875,-0.0029296875,0.986328125,-0.9765625,0.8544921875,-0.732421875,101308
0.625,0.0146484375,-0.0107421875,0.9990234375,-2.25830078125,1.0986328125,-0.79345703125,101308
0.627,0.01171875,-0.0078125,0.984375,-2.62451171875,0.30517578125,-0.91552734375,101308
0.629,0.015625,0.005859375,0.9853515625,-2.5634765625,0.244140625,-0.8544921875,101308
0.632,0.009765625,0.0107421875,1.029296875,-3.2958984375,0.732421875,-1.28173828125,101308
0.633,0.0126953125,0.0078125,1.025390625,-1.708984375,0.244140625,-0.6103515625,101308
0.635,0.013671875,0.0078125,1.017578125,-0.8544921875,0.3662109375,-0.732421875,101308
0.637,0.013671875,0.0009765625,1.0048828125,-0.30517578125,0.79345703125,-1.220703125,101308
0.639,0.0126953125,0.015625,0.998046875,-0.79345703125,0.6103515625,-1.64794921875,101308
0.642,0.0029296875,0.0068359375,1.00390625,-0.3662109375,1.28173828125,-2.01416015625,101308
0.644,0.0107421875,-0.00390625,1.0078125,-0.9765625,0.18310546875,-1.3427734375,101308
0.646,0.0078125,-0.013671875,0.9931640625,-0.732421875,0.79345703125,-0.9765625,101308
0.648,0.001953125,-0.0224609375,0.9658203125,-0.30517578125,0.6103515625,-1.15966796875,101308
0.65,0.017578125,-0.0234375,0.9716796875,-1.3427734375,0.732421875,-1.708984375,101308
0.653,0.0205078125,-0.009765625,0.9853515625,-1.03759765625,1.3427734375,-1.220703125,101308
0.655,0.0048828125,-0.021484375,0.9912109375,-1.77001953125,0.732421875,-0.9765625,101308
0.657,0.0146484375,0.00390625,0.9775390625,-0.8544921875,0.79345703125,-0.9765625,101308
0.658,0.0068359375,-0.01171875,0.974609375,-0.54931640625,0.54931640625,-0.8544921875,101308
0.66,0.0078125,-0.015625,0.97265625,-1.28173828125,0.91552734375,-0.91552734375,101308
0.662,0.0146484375,-0.01171875,0.9970703125,-2.197265625,1.15966796875,-1.28173828125,101308
0.664,-0.0009765625,0.0078125,1.005859375,-1.89208984375,0.91552734375,-1.0986328125,101308
0.666,0.0185546875,-0.0205078125,1.0,-1.953125,0.6103515625,-1.64794921875,101308
0.667,0.0107421875,0.0009765625,1.0029296875,-1.64794921875,0.6103515625,-1.3427734375,101308
0.669,0.021484375,-0.01171875,1.00390625,-1.89208984375,0.6103515625,-0.8544921875,101308
0.671,0.0068359375,0.00390625,1.01171875,-1.52587890625,0.30517578125,-1.28173828125,101308
0.673,0.0068359375,-0.0146484375,1.0087890625,-1.64794921875,0.9765625,-0.9765625,101308
0.675,0.009765625,-0.009765625,1.013671875,-1.52587890625,0.244140625,-1.220703125,101308
0.677,0.009765625,0.001953125,1.015625,-1.953125,1.28173828125,-1.220703125,101308
0.679,0.0078125,-0.0107421875,1.0068359375,-0.8544921875,0.1220703125,-0.9765625,101308
0.681,0.0205078125,-0.0009765625,0.9833984375,-1.220703125,0.8544921875,-0.67138671875,101308
0.683,0.017578125,-0.013671875,0.9775390625,-2.0751953125,0.18310546875,-0.67138671875,101308
0.685,0.0068359375,0.0068359375,1.01171875,-2.86865234375,0.0,-0.79345703125,101308
0.687,0.0244140625,-0.0009765625,1.0107421875,-2.0751953125,1.0986328125,-0.67138671875,101308
0.689,0.013671875,-0.005859375,1.0068359375,-1.46484375,1.03759765625,-1.0986328125,101308
0.691,-0.0009765625,-0.021484375,0.998046875,-1.3427734375,1.0986328125,-1.28173828125,101308
0.692,0.0146484375,-0.0068359375,0.9873046875,-1.15966796875,0.79345703125,-1.0986328125,101308
0.694,0.01171875,-0.01171875,0.98828125,-1.46484375,0.732421875,-0.42724609375,101308
0.696,0.0068359375,-0.0068359375,0.9970703125,-2.01416015625,0.91552734375,-0.8544921875,101308
0.698,0.0029296875,-0.0068359375,0.9873046875,-1.52587890625,0.42724609375,-1.5869140625,101308
0.7,0.015625,0.0107421875,0.96875,-0.732421875,0.42724609375,-0.9765625,101308
0.703,0.01171875,0.0126953125,0.9833984375,-1.8310546875,1.0986328125,-1.28173828125,101308
0.705,0.01171875,0.001953125,0.974609375,-1.953125,0.67138671875,-0.9765625,101308
0.707,0.01171875,0.013671875,0.9970703125,-2.8076171875,0.54931640625,-1.0986328125,101308
0.709,0.0078125,0.0107421875,1.0048828125,-1.220703125,1.03759765625,-1.220703125,101308
0.711,0.0107421875,0.0078125,1.0107421875,-0.18310546875,0.8544921875,-0.79345703125,101308
0.713,0.0068359375,0.0087890625,1.0048828125,-0.9765625,0.3662109375,-1.28173828125,101308
0.715,0.015625,0.0048828125,1.009765625,-0.48828125,1.03759765625,-1.77001953125,101308
0.716,0.0146484375,0.0068359375,0.9990234375,-0.1220703125,1.15966796875,-0.9765625,101308
0.718,0.0166015625,-0.00390625,1.001953125,-1.64794921875,0.54931640625,-0.79345703125,101308
0.72,0.01171875,-0.0107421875,1.0009765625,-1.03759765625,0.67138671875,-0.54931640625,101308
0.722,0.01171875,-0.0126953125,1.0009765625,-0.9765625,1.0986328125,-1.708984375,101308
0.723,0.0078125,-0.0126953125,1.0029296875,-0.79345703125,1.5869140625,-1.03759765625,101308
0.725,0.0087890625,-0.0283203125,0.986328125,-1.0986328125,0.91552734375,-0.9765625,101308
0.727,0.0185546875,-0.0263671875,0.982421875,0.06103515625,0.67138671875,-1.28173828125,101308
0.729,0.0166015625,-0.0302734375,0.9814453125,-0.06103515625,0.8544921875,-1.52587890625,101308
0.731,0.013671875,-0.005859375,0.9912109375,-1.28173828125,1.15966796875,-0.67138671875,101308
0.732,0.017578125,-0.0234375,0.994140625,-0.79345703125,0.54931640625,-0.54931640625,101308
0.734,0.00390625,-0.0078125,0.9912109375,-1.3427734375,0.30517578125,-1.03759765625,101308
0.736,0.0068359375,-0.0078125,0.9736328125,-3.11279296875,1.03759765625,-1.15966796875,101308
0.738,0.0205078125,0.005859375,1.00390625,-2.44140625,0.244140625,-0.91552734375,101308
0.74,0.0126953125,0.0146484375,1.005859375,-2.5634765625,0.42724609375,-0.9765625,101308
0.742,0.017578125,0.00390625,1.0166015625,-2.3193359375,0.30517578125,-1.03759765625,101308
0.745,0.0146484375,0.0,1.0009765625,-2.0751953125,0.48828125,-1.40380859375,101308
0.747,0.0283203125,0.013671875,1.0107421875,-2.8076171875,0.244140625,-2.197265625,101308
0.749,0.0087890625,0.0146484375,1.0009765625,-2.8076171875,0.9765625,-0.8544921875,101308
0.751,0.0078125,0.0048828125,1.0224609375,-3.2958984375,0.54931640625,-1.220703125,101308
0.753,0.015625,0.00390625,1.015625,-3.23486328125,0.48828125,-1.03759765625,101308
0.754,0.0078125,-0.0068359375,1.0234375,-2.3193359375,0.48828125,-0.79345703125,101308
0.756,0.0029296875,-0.0068359375,0.998046875,-1.8310546875,1.0986328125,-0.91552734375,101308
0.758,0.0078125,-0.0146484375,0.994140625,-1.220703125,0.91552734375,-0.91552734375,101308
0.759,0.009765625,-0.0380859375,0.9951171875,-1.28173828125,1.03759765625,-0.9765625,101308
0.761,0.0126953125,-0.0234375,0.994140625,-0.6103515625,1.64794921875,-1.28173828125,101308
0.763,0.0078125,-0.0244140625,0.9716796875,-1.28173828125,0.79345703125,-1.28173828125,101308
0.765,0.0302734375,-0.0087890625,0.9677734375,-1.8310546875,0.732421875,-1.0986328125,101308
0.767,0.0185546875,-0.021484375,0.9560546875,-2.13623046875,0.42724609375,-1.220703125,101308
0.769,0.015625,-0.0185546875,0.97265625,-3.0517578125,0.30517578125,-1.0986328125,101308
0.771,0.0107421875,-0.0166015625,0.9638671875,-2.38037109375,0.244140625,-0.9765625,101308
0.773,0.013671875,0.0029296875,0.9931640625,-2.8076171875,0.244140625,-0.9765625,101308
0.775,0.021484375,-0.0068359375,0.99609375,-2.86865234375,0.244140625,-1.3427734375,101308
0.777,0.009765625,-0.009765625,1.005859375,-2.50244140625,0.54931640625,-1.15966796875,101308
0.779,0.009765625,0.0,1.0087890625,-2.44140625,0.8544921875,-1.52587890625,101308
0.781,0.0078125,0.015625,1.013671875,-2.197265625,1.03759765625,-1.0986328125,101308
0.783,0.01171875,0.009765625,1.0185546875,-1.46484375,0.732421875,-1.0986328125,101308
0.784,0.0166015625,0.0107421875,1.0068359375,-1.15966796875,0.54931640625,-1.52587890625,101308
0.786,0.009765625,0.0126953125,0.9921875,-0.1220703125,0.30517578125,-1.52587890625,101308
0.788,0.0126953125,0.0126953125,0.9951171875,0.18310546875,0.8544921875,-0.9765625,101308
0.79,0.005859375,0.013671875,0.9951171875,0.48828125,0.6103515625,-1.220703125,101308
0.792,0.0146484375,-0.0029296875,0.9755859375,-0.48828125,0.8544921875,-1.52587890625,101308
0.795,0.0224609375,-0.009765625,0.98828125,-2.0751953125,1.15966796875,-1.52587890625,101308
0.797,0.01171875,0.0009765625,0.9912109375,-1.3427734375,0.67138671875,-1.28173828125,101308
0.799,0.015625,-0.0126953125,1.0126953125,-2.44140625,0.244140625,-1.8310546875,101308
0.8,0.0087890625,-0.015625,0.998046875,-2.685546875,0.06103515625,-1.03759765625,101308
0.802,0.001953125,-0.0205078125,0.998046875,-2.25830078125,0.8544921875,-1.3427734375,101308
0.804,0.0126953125,-0.017578125,0.9931640625,-2.38037109375,0.244140625,-1.220703125,101308
0.806,0.005859375,-0.00390625,1.001953125,-2.197265625,0.244140625,-1.46484375,101308
0.808,0.0166015625,-0.0048828125,0.9990234375,-1.0986328125,0.91552734375,-0.9765625,101308
0.81,0.015625,0.005859375,0.9853515625,-1.15966796875,0.244140625,-1.5869140625,101308
0.812,0.017578125,-0.005859375,0.9912109375,-2.01416015625,0.18310546875,-1.15966796875,101308
0.814,0.0107421875,-0.0087890625,0.9873046875,-1.89208984375,0.67138671875,-0.9765625,101308
0.815,0.0087890625,-0.0185546875,0.98828125,-2.25830078125,0.54931640625,-1.52587890625,101308
0.817,0.01171875,-0.009765625,1.0,-2.5634765625,0.6103515625,-1.15966796875,101308
0.819,0.0107421875,0.01171875,0.9775390625,-1.8310546875,0.1220703125,-0.91552734375,101308
0.821,0.001953125,0.0009765625,0.9833984375,-1.64794921875,0.732421875,-1.0986328125,101308
0.823,0.0029296875,0.0048828125,0.9775390625,-1.64794921875,0.1220703125,-1.0986328125,101308
0.825,0.01171875,0.0078125,0.990234375,-2.44140625,0.3662109375,-1.708984375,101308
0.827,0.01171875,-0.0029296875,0.9912109375,-2.44140625,0.91552734375,-0.79345703125,101308
0.829,0.009765625,-0.0107421875,0.982421875,-2.197265625,0.732421875,-1.28173828125,101308
0.831,0.013671875,-0.0126953125,0.9775390625,-2.50244140625,0.244140625,-1.3427734375,101308
0.833,0.013671875,-0.00390625,0.9921875,-2.62451171875,0.9765625,-1.03759765625,101308
0.836,0.0107421875,0.001953125,1.0048828125,-3.23486328125,0.6103515625,-1.40380859375,101308
0.838,0.0146484375,-0.0078125,1.013671875,-2.8076171875,0.30517578125,-1.5869140625,101308
0.84,0.01953125,-0.0029296875,1.01953125,-3.23486328125,0.6103515625,-1.28173828125,101308
0.842,0.001953125,-0.0068359375,1.0048828125,-1.77001953125,0.9765625,-1.0986328125,101308
0.844,0.01171875,-0.01171875,0.990234375,-1.708984375,0.91552734375,-1.15966796875,101308
0.847,0.01953125,-0.0244140625,0.9951171875,-1.77001953125,0.67138671875,-0.79345703125,101308
0.848,0.0126953125,-0.013671875,1.0,-1.708984375,1.03759765625,-1.52587890625,101308
0.85,0.0234375,-0.0126953125,0.998046875,-2.3193359375,0.30517578125,-0.48828125,101308
0.852,0.01171875,0.0029296875,0.9892578125,-2.13623046875,0.1220703125,-1.708984375,101308
0.854,0.013671875,-0.0126953125,0.9775390625,-2.25830078125,0.48828125,-1.03759765625,101308
0.856,0.0107421875,0.0009765625,0.986328125,-2.38037109375,0.8544921875,-0.732421875,101308
0.857,0.0205078125,0.0,0.9873046875,-2.86865234375,0.54931640625,-1.40380859375,101308
0.859,0.0146484375,-0.009765625,1.0029296875,-2.99072265625,-0.1220703125,-0.732421875,101308
0.861,0.00390625,0.01171875,1.0107421875,-2.8076171875,1.3427734375,-1.40380859375,101308
0.863,0.015625,-0.0009765625,0.998046875,-2.685546875,0.91552734375,-1.708984375,101308
0.865,0.015625,0.005859375,1.00390625,-1.77001953125,0.48828125,-1.15966796875,101308
0.867,0.01171875,-0.0048828125,0.982421875,-1.8310546875,0.3662109375,-1.15966796875,101308
0.869,0.013671875,-0.0009765625,1.0009765625,-1.8310546875,0.6103515625,-1.77001953125,101308
0.871,0.015625,0.001953125,1.0126953125,-1.89208984375,0.67138671875,-1.953125,101308
0.873,0.0068359375,-0.005859375,0.9990234375,-1.0986328125,0.732421875,-1.0986328125,101308
0.875,0.0078125,-0.009765625,1.013671875,-1.03759765625,0.6103515625,-1.40380859375,101308
0.877,0.0078125,-0.03125,1.0107421875,-0.42724609375,0.18310546875,-0.8544921875,101308
0.879,0.0029296875,-0.021484375,0.9697265625,-0.06103515625,0.54931640625,-1.15966796875,101308
0.881,0.0126953125,-0.0263671875,0.9775390625,-0.42724609375,0.8544921875,-1.15966796875,101308
0.883,0.017578125,0.001953125,0.994140625,-1.0986328125,0.244140625,-1.220703125,101308
0.885,0.0234375,-0.0087890625,1.0009765625,-1.220703125,0.42724609375,-1.28173828125,101308
0.886,0.0185546875,-0.009765625,0.9873046875,-1.0986328125,0.6103515625,-1.953125,101308
0.888,0.01953125,-0.0068359375,0.9677734375,-0.91552734375,0.8544921875,-1.220703125,101308
0.89,0.0166015625,-0.0048828125,0.978515625,-1.15966796875,1.28173828125,-1.64794921875,101308
0.891,0.0166015625,0.001953125,0.9755859375,-1.708984375,1.0986328125,-0.9765625,101308
0.893,0.009765625,-0.0048828125,1.0107421875,-2.74658203125,0.6103515625,-0.67138671875,101308
0.895,0.0224609375,0.017578125,1.0126953125,-1.0986328125,0.732421875,-1.708984375,101308
0.897,0.0048828125,0.001953125,1.001953125,-2.0751953125,0.54931640625,-0.8544921875,101308
0.899,0.0078125,-0.0029296875,0.99609375,-2.3193359375,-0.06103515625,-1.3427734375,101308
0.901,-0.005859375,0.0126953125,1.0078125,-2.685546875,0.79345703125,-1.64794921875,101308
0.903,0.0263671875,0.0078125,1.009765625,-1.3427734375,0.18310546875,-1.3427734375,101308
0.905,0.0185546875,-0.0009765625,1.03125,-1.64794921875,0.48828125,-1.28173828125,101308
0.908,0.01171875,-0.0009765625,1.0048828125,-0.91552734375,0.732421875,-1.3427734375,101308
0.91,0.0146484375,-0.0146484375,0.99609375,0.30517578125,0.6103515625,-0.79345703125,101308
0.912,0.0146484375,-0.01171875,0.9775390625,-0.732421875,0.48828125,-1.708984375,101308
0.914,0.01953125,-0.0244140625,0.9716796875,-1.708984375,0.6103515625,-1.46484375,101308
0.916,0.01171875,-0.0087890625,0.986328125,-2.685546875,0.79345703125,-1.28173828125,101308
0.916,0.021484375,-0.013671875,0.99609375,-2.25830078125,0.79345703125,-0.9765625,101308
0.918,0.0146484375,-0.005859375,0.9951171875,-1.52587890625,0.79345703125,-1.3427734375,101308
0.92,0.015625,0.0029296875,0.98046875,-1.89208984375,0.3662109375,-1.0986328125,101308
0.922,0.0048828125,-0.009765625,0.970703125,-2.197265625,0.18310546875,-0.91552734375,101308
0.924,0.001953125,-0.0126953125,0.9951171875,-3.0517578125,0.30517578125,-1.15966796875,101308
0.926,0.0029296875,-0.0087890625,1.0087890625,-3.47900390625,0.732421875,-2.01416015625,101308
0.928,0.0078125,-0.0009765625,1.0205078125,-3.0517578125,0.8544921875,-1.15966796875,101308
0.93,0.013671875,-0.009765625,1.0185546875,-1.77001953125,0.54931640625,-1.77001953125,101308
0.932,0.005859375,0.001953125,0.9931640625,-1.8310546875,0.48828125,-1.03759765625,101308
0.933,0.0146484375,0.009765625,0.9912109375,-2.5634765625,-0.06103515625,-0.79345703125,101308
0.935,0.005859375,0.01171875,0.998046875,-2.3193359375,0.67138671875,-0.79345703125,101308
0.938,0.0068359375,-0.0048828125,1.0107421875,-1.3427734375,0.67138671875,-2.3193359375,101308
0.94,0.0224609375,0.0068359375,0.98828125,-1.28173828125,0.48828125,-1.15966796875,101308
0.942,0.015625,-0.0029296875,0.9755859375,-1.0986328125,0.91552734375,-0.67138671875,101308
0.944,0.0107421875,-0.015625,0.98046875,-1.220703125,0.3662109375,-1.0986328125,101308
0.946,0.017578125,-0.0029296875,0.986328125,-0.732421875,0.732421875,-1.28173828125,101308
0.947,0.0068359375,-0.01953125,0.9853515625,-0.79345703125,0.06103515625,-1.15966796875,101308
0.949,0.0166015625,-0.0107421875,0.9990234375,-0.9765625,0.3662109375,-0.67138671875,101308
0.951,0.0185546875,-0.0048828125,0.9755859375,-0.8544921875,0.732421875,-1.52587890625,101308
0.953,0.015625,-0.0107421875,0.982421875,-1.220703125,0.54931640625,-1.03759765625,101308
0.955,0.015625,-0.0107421875,0.978515625,-1.0986328125,0.79345703125,-0.9765625,101308
0.958,0.0224609375,-0.015625,0.9794921875,-1.52587890625,0.48828125,-0.79345703125,101308
0.959,0.017578125,-0.0029296875,1.00390625,-2.01416015625,0.67138671875,-0.6103515625,101308
0.961,0.015625,-0.0146484375,1.015625,-1.220703125,0.91552734375,-0.67138671875,101308
0.963,0.0048828125,-0.00390625,0.9951171875,-0.8544921875,0.732421875,-0.54931640625,101308
0.965,0.005859375,-0.0126953125,1.0,-0.42724609375,0.732421875,-1.220703125,101308
0.968,0.00390625,-0.0048828125,1.00390625,-0.9765625,0.91552734375,-1.03759765625,101308
0.97,0.0224609375,0.0087890625,1.0048828125,-1.220703125,1.03759765625,-0.67138671875,101308
0.972,0.02734375,0.009765625,1.0185546875,-0.06103515625,0.79345703125,-1.03759765625,101308
0.974,0.009765625,0.0146484375,0.9931640625,-0.48828125,0.79345703125,-1.03759765625,101308
0.976,0.0078125,0.005859375,1.01171875,-1.708984375,0.30517578125,-1.03759765625,101308
0.979,-0.0029296875,0.0029296875,1.001953125,-1.52587890625,0.67138671875,-1.0986328125,101308
0.981,0.0068359375,-0.001953125,0.990234375,-0.3662109375,0.244140625,-1.5869140625,101308
0.983,0.0068359375,-0.00390625,0.9892578125,-0.1220703125,0.54931640625,-1.15966796875,101308
0.985,0.013671875,-0.009765625,0.9990234375,-0.48828125,1.0986328125,-0.48828125,101308
0.987,0.00390625,-0.0234375,0.994140625,-0.732421875,0.6103515625,-1.0986328125,101308
0.988,0.0146484375,-0.0126953125,0.984375,-0.54931640625,0.3662109375,-0.1220703125,101308
0.99,0.021484375,-0.017578125,0.9833984375,-0.30517578125,0.54931640625,-0.79345703125,101308
0.991,0.005859375,-0.013671875,0.962890625,-0.30517578125,0.48828125,-0.9765625,101308
0.993,0.005859375,-0.0009765625,0.994140625,-0.732421875,0.732421875,-0.91552734375,101308
0.995,0.0302734375,-0.001953125,0.9931640625,-1.0986328125,0.9765625,-1.708984375,101308
0.997,0.0224609375,-0.015625,0.974609375,-0.6103515625,0.732421875,-1.28173828125,101308
0.999,0.0068359375,-0.0087890625,0.990234375,-0.42724609375,1.5869140625,-1.46484375,101308
1.001,0.01171875,-0.017578125,0.9912109375,-1.03759765625,0.06103515625,-1.46484375,101308
1.003,0.0146484375,-0.0126953125,0.986328125,-1.46484375,0.91552734375,-1.3427734375,101308
1.005,0.0146484375,0.0,0.9970703125,-1.8310546875,0.732421875,-1.28173828125,101308
1.007,0.01171875,-0.0029296875,1.021484375,-1.953125,-0.06103515625,-1.46484375,101308
1.009,0.0126953125,0.0078125,1.0146484375,-1.52587890625,0.42724609375,-1.0986328125,101308
1.011,0.0087890625,0.0078125,1.0048828125,-1.28173828125,0.48828125,-1.220703125,101308
1.013,0.005859375,0.013671875,1.001953125,-1.46484375,0.67138671875,-1.40380859375,101308
1.015,0.0087890625,0.015625,1.0,-0.8544921875,0.732421875,-1.64794921875,101308
1.017,0.009765625,0.0078125,1.005859375,-0.1220703125,0.42724609375,-1.77001953125,101308
1.018,0.009765625,0.01171875,0.9912109375,-0.3662109375,0.9765625,-1.64794921875,101308
1.02,0.0068359375,0.001953125,0.998046875,-0.18310546875,1.40380859375,-1.3427734375,101308
1.022,0.009765625,0.0068359375,0.9931640625,-0.91552734375,0.91552734375,-1.03759765625,101308
1.025,0.017578125,-0.0205078125,0.994140625,-2.25830078125,1.15966796875,-1.52587890625,101308
1.027,0.015625,-0.0107421875,1.0,-1.64794921875,0.67138671875,-0.8544921875,101308
1.029,0.0107421875,-0.0234375,0.990234375,-2.01416015625,0.18310546875,-1.15966796875,101308
1.031,0.01171875,-0.02734375,0.9912109375,-1.8310546875,0.42724609375,-1.28173828125,101308
1.033,0.00390625,-0.0302734375,0.9951171875,-1.77001953125,0.06103515625,-1.8310546875,101308
1.034,0.0126953125,-0.0224609375,0.99609375,-2.0751953125,0.244140625,-1.0986328125,101308
1.036,-0.001953125,-0.0068359375,0.994140625,-1.28173828125,0.30517578125,-0.91552734375,101308
1.04,0.0009765625,-0.0029296875,1.0029296875,-1.89208984375,0.732421875,-0.30517578125,101308
1.041,0.00390625,-0.0068359375,0.986328125,-2.13623046875,0.30517578125,-0.91552734375,101308
1.043,0.001953125,-0.0146484375,1.0029296875,-1.953125,0.30517578125,-1.15966796875,101308
1.045,0.0166015625,-0.0068359375,1.0048828125,-2.50244140625,0.48828125,-1.52587890625,101308
1.047,0.0087890625,0.0009765625,1.0029296875,-2.01416015625,-0.30517578125,-1.8310546875,101308
1.05,0.0185546875,0.00390625,0.98046875,-1.77001953125,0.1220703125,-1.3427734375,101308
1.052,0.0078125,0.0185546875,1.01171875,-1.89208984375,0.54931640625,-1.64794921875,101308
1.054,0.0126953125,-0.0009765625,1.0048828125,-1.52587890625,1.3427734375,-1.3427734375,101308
1.056,0.0087890625,0.0068359375,1.013671875,-1.0986328125,1.220703125,-1.0986328125,101308
1.058,0.009765625,0.0009765625,0.9951171875,-0.6103515625,0.1220703125,-1.40380859375,101308
1.059,0.01171875,0.0048828125,0.9794921875,-0.48828125,0.30517578125,-1.52587890625,101308
1.061,0.017578125,0.005859375,0.9677734375,-0.67138671875,0.48828125,-0.9765625,101308
1.063,0.015625,0.0,0.9765625,-1.220703125,0.42724609375,-1.40380859375,101308
1.065,0.015625,0.009765625,0.99609375,-1.46484375,0.9765625,-1.52587890625,101308
1.067,0.013671875,0.0,0.9814453125,-2.44140625,1.15966796875,-0.8544921875,101308
1.068,0.0126953125,-0.0078125,0.9951171875,-2.50244140625,1.220703125,-1.40380859375,101308
1.07,0.009765625,-0.013671875,0.986328125,-2.01416015625,1.77001953125,-0.79345703125,101308
1.072,0.0185546875,-0.02734375,0.9873046875,-1.77001953125,0.8544921875,-1.0986328125,101308
1.074,0.013671875,-0.0244140625,1.001953125,-1.15966796875,0.79345703125,-1.220703125,101308
1.076,0.005859375,-0.044921875,0.98828125,-1.5869140625,1.3427734375,-1.220703125,101308
1.078,0.0224609375,-0.0302734375,0.9931640625,-0.79345703125,0.67138671875,-1.03759765625,101308
1.081,0.0107421875,-0.0087890625,0.9677734375,-1.3427734375,1.3427734375,-0.79345703125,101308
1.083,0.015625,0.0078125,0.990234375,-1.220703125,0.732421875,-1.52587890625,101308
1.084,0.009765625,-0.009765625,0.9755859375,-2.197265625,-0.48828125,-1.15966796875,101308
1.086,0.0,0.0,1.00390625,-1.89208984375,-0.54931640625,-0.9765625,101308
1.088,0.01171875,-0.0078125,1.0126953125,-3.72314453125,0.48828125,-1.5869140625,101308
1.09,0.0126953125,0.001953125,0.9912109375,-4.33349609375,0.18310546875,-1.28173828125,101308
1.092,0.009765625,0.0087890625,1.0146484375,-4.57763671875,-0.244140625,-1.89208984375,101308
1.093,0.0068359375,0.005859375,1.0224609375,-3.72314453125,0.3662109375,-1.15966796875,101308
1.095,0.0146484375,0.001953125,1.0302734375,-2.685546875,0.91552734375,-1.64794921875,101308
1.097,0.0126953125,0.0009765625,1.0234375,-2.38037109375,0.3662109375,-1.46484375,101308
1.1,0.005859375,0.0087890625,1.005859375,-2.197265625,0.9765625,-1.3427734375,101308
1.102,0.0009765625,0.0166015625,0.994140625,-1.52587890625,1.220703125,-1.46484375,101308
1.104,0.0068359375,-0.0029296875,0.986328125,-1.953125,0.6103515625,-1.03759765625,101308
1.106,0.0048828125,-0.0068359375,0.9892578125,-1.64794921875,0.79345703125,-1.5869140625,101308
1.108,0.0087890625,-0.013671875,0.9697265625,-1.5869140625,0.54931640625,-1.28173828125,101308
1.111,0.0126953125,-0.0244140625,0.9765625,-2.9296875,0.18310546875,-1.64794921875,101308
1.113,0.0126953125,-0.021484375,0.98046875,-3.7841796875,0.3662109375,-1.28173828125,101308
1.115,0.0068359375,-0.02734375,0.974609375,-2.86865234375,0.06103515625,-1.0986328125,101308
1.116,0.009765625,-0.041015625,0.9853515625,-1.89208984375,0.1220703125,-1.40380859375,101308
1.118,0.0166015625,-0.0224609375,0.978515625,-1.28173828125,1.220703125,-1.5869140625,101308
1.121,0.0283203125,-0.013671875,0.9775390625,-2.01416015625,0.8544921875,-2.0751953125,101308
1.123,0.0185546875,-0.0068359375,0.9951171875,-2.197265625,0.244140625,-1.46484375,101308
1.125,0.0107421875,-0.0029296875,0.9921875,-2.8076171875,0.42724609375,-1.46484375,101308
1.127,0.0068359375,0.0087890625,1.005859375,-2.5634765625,0.30517578125,-0.42724609375,101308
1.129,0.013671875,0.0068359375,0.9970703125,-2.74658203125,0.67138671875,-1.64794921875,101308
1.13,0.0126953125,0.0107421875,1.0068359375,-2.74658203125,1.03759765625,-1.28173828125,101308
1.132,0.001953125,0.01171875,1.025390625,-2.50244140625,-0.1220703125,-0.91552734375,101308
1.134,0.015625,0.013671875,1.0283203125,-2.44140625,1.03759765625,-1.3427734375,101308
1.136,0.009765625,0.00390625,1.041015625,-2.5634765625,0.30517578125,-1.52587890625,101308
1.138,0.01953125,-0.001953125,1.017578125,-1.03759765625,0.91552734375,-1.28173828125,101308
1.14,0.013671875,0.01171875,1.005859375,-1.220703125,0.91552734375,-1.3427734375,101308
1.141,0.017578125,0.005859375,0.9892578125,-0.9765625,0.18310546875,-0.732421875,101308
1.143,0.0048828125,0.001953125,1.0166015625,-0.732421875,0.42724609375,-1.52587890625,101308
1.145,0.013671875,0.01171875,1.0,-1.3427734375,-0.18310546875,-1.64794921875,101308
1.147,0.001953125,-0.013671875,0.984375,-1.52587890625,0.42724609375,-0.732421875,101308
1.149,0.0078125,-0.0126953125,0.9677734375,-1.0986328125,0.9765625,-0.54931640625,101308
1.152,0.01171875,-0.029296875,0.984375,-2.685546875,0.18310546875,-0.8544921875,101308
1.154,0.0166015625,-0.0263671875,0.984375,-2.38037109375,0.42724609375,-0.8544921875,101308
1.156,0.0166015625,-0.009765625,0.994140625,-1.77001953125,0.48828125,-1.0986328125,101308
1.158,0.0078125,-0.015625,0.9892578125,-1.03759765625,0.54931640625,-0.48828125,101308
1.159,0.0078125,-0.013671875,0.984375,-1.0986328125,0.244140625,-1.03759765625,101308
1.161,0.0009765625,-0.001953125,0.96484375,-1.3427734375,1.03759765625,-1.220703125,101308
1.163,0.00390625,0.0048828125,0.9931640625,-2.44140625,0.18310546875,-2.197265625,101308
1.165,0.013671875,-0.0009765625,0.9833984375,-1.46484375,0.18310546875,-1.40380859375,101308
1.166,0.0205078125,-0.0146484375,0.994140625,-1.15966796875,-0.06103515625,-1.3427734375,101308
1.168,0.01171875,-0.005859375,0.9990234375,-1.52587890625,0.6103515625,-0.6103515625,101308
1.171,0.0146484375,-0.0126953125,0.98046875,-1.77001953125,0.30517578125,-0.9765625,101308
1.173,0.0126953125,0.0185546875,0.978515625,-2.38037109375,-0.18310546875,-1.52587890625,101308
1.175,0.0009765625,0.00390625,1.01171875,-3.11279296875,0.8544921875,-1.220703125,101308
1.177,0.0205078125,0.00390625,1.0087890625,-1.5869140625,1.0986328125,-1.3427734375,101308
1.179,0.0048828125,-0.0146484375,1.0068359375,-0.732421875,1.03759765625,-1.15966796875,101308
1.181,0.0224609375,-0.0048828125,1.0087890625,-0.8544921875,0.79345703125,-0.54931640625,101308
1.183,0.0048828125,-0.017578125,0.994140625,-0.1220703125,0.67138671875,-1.28173828125,101308
1.184,0.013671875,-0.017578125,0.9814453125,0.6103515625,0.244140625,-1.3427734375,101308
1.186,0.0166015625,0.0126953125,0.96875,-0.1220703125,1.220703125,-1.15966796875,101308
1.188,0.0009765625,-0.001953125,0.970703125,-0.54931640625,0.48828125,-0.48828125,101308
1.19,0.0185546875,0.00390625,0.978515625,-0.79345703125,1.0986328125,-1.40380859375,101308
1.192,0.0078125,-0.0068359375,1.001953125,-2.13623046875,0.54931640625,-1.3427734375,101308
1.194,0.00390625,0.001953125,1.0009765625,-2.25830078125,0.48828125,-1.0986328125,101308
1.196,0.015625,-0.0107421875,1.009765625,-3.5400390625,0.30517578125,-0.732421875,101308
1.198,0.013671875,-0.0126953125,1.0166015625,-2.8076171875,0.3662109375,-1.0986328125,101308
1.2,0.0078125,-0.005859375,1.01953125,-3.2958984375,0.48828125,-1.46484375,101308
1.202,0.001953125,-0.0107421875,1.0234375,-2.0751953125,1.28173828125,-0.67138671875,101308
1.204,0.0,-0.0048828125,1.0126953125,-1.5869140625,0.42724609375,-1.5869140625,101308
1.206,0.0048828125,-0.005859375,1.01171875,-1.77001953125,0.6103515625,-0.9765625,101308
1.208,0.0078125,0.0068359375,0.99609375,-0.9765625,-0.1220703125,-1.708984375,101308
1.21,-0.0009765625,-0.0205078125,0.9990234375,0.30517578125,0.9765625,-1.64794921875,101308
1.213,0.015625,-0.009765625,0.97265625,-0.3662109375,0.3662109375,-1.64794921875,101308
1.215,0.01953125,-0.0126953125,0.9599609375,-0.42724609375,1.220703125,-1.220703125,101308
1.217,0.03125,-0.0029296875,0.962890625,-0.9765625,0.6103515625,-1.03759765625,101308
1.219,0.0166015625,-0.0146484375,0.97265625,-1.64794921875,0.3662109375,-1.46484375,101308
1.221,0.0244140625,-0.005859375,0.990234375,-2.38037109375,0.54931640625,-2.01416015625,101308
1.224,0.0107421875,-0.009765625,1.0,-2.197265625,0.67138671875,-1.03759765625,101308
1.225,0.0244140625,-0.0078125,0.984375,-2.5634765625,0.1220703125,-1.40380859375,101308
1.227,0.0087890625,-0.013671875,0.9853515625,-1.8310546875,0.42724609375,-1.708984375,101308
1.229,0.01171875,-0.0048828125,1.0078125,-1.5869140625,0.48828125,-1.89208984375,101308
1.231,0.00390625,-0.005859375,1.021484375,-1.28173828125,0.30517578125,-1.0986328125,101308
1.233,0.013671875,0.00390625,1.0107421875,0.0,0.42724609375,-1.52587890625,101308
1.234,0.0068359375,0.005859375,0.98828125,-0.42724609375,0.42724609375,-1.220703125,101308
1.236,0.01171875,0.009765625,0.9970703125,0.18310546875,1.0986328125,-1.15966796875,101308
1.238,0.009765625,0.0166015625,1.001953125,-0.8544921875,0.9765625,-1.46484375,101308
1.24,0.01171875,0.0048828125,0.9921875,-0.244140625,0.3662109375,-1.40380859375,101308
1.243,0.009765625,0.0029296875,0.9931640625,-0.732421875,0.1220703125,-1.15966796875,101308
1.245,0.0205078125,-0.0009765625,1.00390625,-0.9765625,0.42724609375,-1.28173828125,101308
1.247,0.017578125,-0.005859375,0.98828125,-2.0751953125,0.54931640625,-0.8544921875,101308
1.249,0.015625,-0.005859375,1.0048828125,-3.0517578125,0.244140625,-0.54931640625,101308
1.25,0.0185546875,-0.0107421875,1.0224609375,-3.173828125,0.1220703125,-0.8544921875,101308
1.254,0.0078125,-0.01171875,1.0146484375,-1.5869140625,1.0986328125,-0.9765625,101308
1.256,0.009765625,-0.009765625,1.01171875,-1.40380859375,0.67138671875,-0.732421875,101308
1.258,0.0048828125,-0.0185546875,0.990234375,-1.40380859375,0.48828125,-0.9765625,101308
1.259,0.0107421875,-0.015625,0.9775390625,-0.9765625,0.6103515625,-0.9765625,101308
1.261,0.009765625,-0.0205078125,0.9921875,-1.0986328125,0.48828125,-1.28173828125,101308
1.264,0.0107421875,-0.009765625,0.9873046875,-1.52587890625,0.18310546875,-1.40380859375,101308
1.266,0.0166015625,-0.0166015625,0.9677734375,-0.67138671875,0.3662109375,-2.01416015625,101308
1.268,0.0224609375,-0.0185546875,0.9658203125,-2.197265625,0.6103515625,-0.54931640625,101308
1.27,0.0244140625,-0.0048828125,0.9765625,-3.60107421875,-0.244140625,-1.52587890625,101308
1.272,0.0078125,-0.0068359375,0.9794921875,-3.96728515625,0.18310546875,-1.03759765625,101308
1.273,0.009765625,0.005859375,1.015625,-4.57763671875,0.30517578125,-0.9765625,101308
1.275,0.01953125,0.0166015625,1.01171875,-3.23486328125,1.03759765625,-0.91552734375,101308
1.277,0.0126953125,0.021484375,1.0048828125,-1.77001953125,0.67138671875,-0.732421875,101308
1.279,0.01953125,0.0009765625,0.9912109375,-0.67138671875,0.3662109375,-1.89208984375,101308
1.281,0.01171875,0.0166015625,0.9892578125,-0.8544921875,1.0986328125,-1.5869140625,101308
1.283,0.0068359375,0.001953125,1.0,-2.01416015625,0.54931640625,-1.64794921875,101308
1.284,0.0126953125,0.013671875,1.013671875,-1.64794921875,1.03759765625,-1.0986328125,101308
1.286,0.0205078125,0.009765625,1.00390625,-1.3427734375,0.48828125,-1.46484375,101308
1.288,0.0205078125,-0.0009765625,0.986328125,-1.28173828125,0.8544921875,-1.15966796875,101308
1.29,0.017578125,0.0,0.97265625,-1.15966796875,1.03759765625,-1.5869140625,101308
1.292,0.015625,0.0,0.990234375,-0.91552734375,1.220703125,-1.3427734375,101308
1.295,0.0166015625,-0.0146484375,0.9931640625,-0.48828125,0.9765625,-1.28173828125,101308
1.297,0.0,-0.0205078125,0.9921875,-0.91552734375,0.48828125,-1.46484375,101308
1.299,0.017578125,-0.021484375,0.9921875,-0.732421875,0.8544921875,-1.15966796875,101308
1.3,0.005859375,-0.0078125,0.986328125,-0.91552734375,0.42724609375,-0.79345703125,101308
1.302,0.01171875,-0.0263671875,0.978515625,-0.79345703125,1.03759765625,-1.3427734375,101308
1.304,0.0009765625,-0.0078125,0.978515625,-1.03759765625,0.6103515625,-1.40380859375,101308
1.306,0.009765625,-0.017578125,0.98046875,-1.5869140625,0.54931640625,-1.708984375,101308
1.308,0.0205078125,-0.0205078125,0.9951171875,-2.01416015625,0.244140625,-1.89208984375,101308
1.309,0.0078125,-0.0087890625,0.986328125,-1.3427734375,0.54931640625,-0.79345703125,101308
1.311,0.013671875,-0.001953125,0.9931640625,-2.38037109375,-0.244140625,-0.67138671875,101308
1.314,0.015625,0.013671875,1.009765625,-2.74658203125,0.1220703125,-1.3427734375,101308
1.316,0.0087890625,0.0166015625,1.017578125,-3.11279296875,0.244140625,-1.64794921875,101308
1.318,0.005859375,0.0126953125,1.0361328125,-1.15966796875,0.67138671875,-1.15966796875,101308
1.32,0.0,0.0068359375,1.01953125,-0.6103515625,0.42724609375,-0.732421875,101308
1.322,0.0009765625,-0.001953125,1.0068359375,-1.0986328125,0.48828125,-0.8544921875,101308
1.325,0.0107421875,-0.0107421875,0.984375,-1.220703125,0.48828125,-0.91552734375,101308
1.327,0.0107421875,-0.0244140625,0.998046875,-1.28173828125,0.244140625,-1.46484375,101308
1.329,0.0087890625,-0.01171875,0.98828125,-1.64794921875,0.30517578125,-1.03759765625,101308
1.331,0.0107421875,-0.01953125,0.98046875,-1.953125,0.8544921875,-1.40380859375,101308
1.333,0.021484375,-0.02734375,0.970703125,-2.25830078125,0.6103515625,-1.3427734375,101308
1.335,0.0107421875,-0.0185546875,0.9599609375,-2.99072265625,0.0,-1.03759765625,101308
1.337,0.0185546875,-0.0078125,0.9755859375,-3.2958984375,0.3662109375,-1.0986328125,101308
1.339,0.013671875,-0.025390625,0.986328125,-1.52587890625,0.18310546875,-1.3427734375,101308
1.341,0.0205078125,-0.0166015625,0.984375,-1.77001953125,1.64794921875,-1.28173828125,101308
1.343,0.01953125,-0.0185546875,0.970703125,-1.40380859375,0.732421875,-1.220703125,101308
1.344,0.0087890625,-0.01171875,0.98828125,-1.8310546875,0.9765625,-1.5869140625,101308
1.346,0.0146484375,-0.015625,0.99609375,-3.90625,0.732421875,-0.91552734375,101308
1.348,0.005859375,-0.0048828125,0.9951171875,-3.47900390625,0.48828125,-1.0986328125,101308
1.35,0.01171875,-0.013671875,1.0185546875,-3.0517578125,1.03759765625,-0.8544921875,101308
1.352,0.013671875,0.0009765625,1.01171875,-3.35693359375,0.8544921875,-1.5869140625,101308
1.354,0.0029296875,0.0,1.015625,-2.01416015625,0.48828125,-1.46484375,101308
1.355,0.0048828125,-0.0029296875,0.994140625,-1.3427734375,0.67138671875,-1.0986328125,101308
1.357,0.013671875,0.0029296875,0.9912109375,-1.52587890625,0.244140625,-0.9765625,101308
1.359,0.0048828125,0.0107421875,1.017578125,-1.953125,0.91552734375,-1.8310546875,101308
1.361,0.009765625,0.01171875,1.0244140625,-2.685546875,0.0,-1.0986328125,101308
1.363,0.009765625,-0.0068359375,1.005859375,-1.5869140625,0.48828125,-0.6103515625,101308
1.366,0.005859375,0.001953125,0.9833984375,-2.13623046875,1.03759765625,-1.220703125,101308
1.368,0.009765625,0.0029296875,0.98828125,-3.47900390625,0.9765625,-1.220703125,101308
1.37,0.0009765625,-0.001953125,0.9951171875,-3.662109375,0.54931640625,-2.01416015625,101308
1.372,0.01953125,-0.0107421875,1.0087890625,-2.99072265625,1.03759765625,-1.8310546875,101308
1.374,0.00390625,-0.01171875,1.009765625,-2.9296875,0.42724609375,-1.5869140625,101308
1.375,0.0107421875,-0.0029296875,1.0029296875,-2.9296875,0.42724609375,-1.5869140625,101308
1.377,0.0068359375,-0.009765625,0.99609375,-2.8076171875,0.79345703125,-1.64794921875,101308
1.379,0.0146484375,-0.009765625,1.0087890625,-2.3193359375,0.79345703125,-1.64794921875,101308
1.381,0.0048828125,-0.01953125,0.994140625,-1.708984375,0.48828125,-1.220703125,101308
1.383,0.0029296875,-0.017578125,0.998046875,-1.0986328125,0.48828125,-1.15966796875,101308
1.385,0.0126953125,-0.0166015625,0.9755859375,-0.79345703125,0.18310546875,-0.91552734375,101308
1.387,0.017578125,-0.00390625,0.962890625,-1.89208984375,1.220703125,-1.46484375,101308
1.389,0.0126953125,0.0048828125,0.962890625,-2.38037109375,1.5869140625,-1.03759765625,101308
1.391,0.0224609375,0.005859375,0.9677734375,-2.44140625,1.28173828125,-0.9765625,101308
1.393,0.01953125,0.0009765625,0.9716796875,-2.62451171875,0.79345703125,-1.77001953125,101308
1.396,0.01171875,-0.0078125,1.01171875,-3.0517578125,0.79345703125,-1.46484375,101308
1.398,0.015625,-0.0166015625,1.015625,-3.96728515625,0.732421875,-1.40380859375,101308
1.4,0.0068359375,-0.009765625,1.021484375,-4.39453125,0.18310546875,-1.03759765625,101308
1.402,0.029296875,-0.0009765625,1.0263671875,-3.60107421875,0.30517578125,-0.54931640625,101308
1.404,0.0205078125,0.0068359375,1.021484375,-3.5400390625,0.48828125,-0.8544921875,101308
1.407,0.0087890625,-0.01171875,1.0078125,-2.44140625,0.79345703125,-1.708984375,101308
1.409,0.015625,-0.001953125,1.013671875,-1.220703125,0.67138671875,-0.8544921875,101308
1.41,0.009765625,-0.0048828125,0.9931640625,-1.46484375,0.8544921875,-0.48828125,101308
1.412,0.001953125,-0.0009765625,0.9873046875,-1.953125,0.79345703125,-1.3427734375,101308
1.414,0.013671875,-0.0146484375,0.978515625,-2.74658203125,0.0,-1.03759765625,101308
1.416,0.017578125,0.0,0.9833984375,-3.23486328125,0.30517578125,-0.8544921875,101308
1.418,0.0166015625,-0.001953125,0.9794921875,-3.662109375,0.54931640625,-1.03759765625,101308
1.419,0.0078125,-0.0048828125,0.970703125,-2.8076171875,0.54931640625,-0.67138671875,101308
1.421,0.0078125,-0.0009765625,0.9638671875,-3.47900390625,0.91552734375,-1.03759765625,101308
1.423,0.0068359375,0.0087890625,0.9560546875,-4.5166015625,0.8544921875,-1.40380859375,101308
1.426,0.0107421875,0.0029296875,1.001953125,-5.615234375,0.6103515625,-1.46484375,101308
1.428,0.02734375,-0.005859375,1.0166015625,-5.615234375,0.91552734375,-1.15966796875,101308
1.43,0.015625,0.00390625,1.033203125,-3.72314453125,0.9765625,-1.52587890625,101308
1.432,0.0029296875,0.0029296875,1.001953125,-2.685546875,1.77001953125,-1.3427734375,101308
1.434,0.01171875,0.005859375,1.001953125,-3.2958984375,0.732421875,-1.0986328125,101308
1.437,0.0107421875,-0.0166015625,1.0078125,-3.11279296875,1.5869140625,-0.79345703125,101308
1.439,0.0224609375,-0.0146484375,1.00390625,-1.8310546875,0.79345703125,-1.3427734375,101308
1.441,0.01953125,-0.0087890625,0.9853515625,0.1220703125,0.42724609375,-1.03759765625,101308
1.443,0.0087890625,-0.0126953125,0.955078125,0.8544921875,0.732421875,-1.15966796875,101308
1.444,0.025390625,-0.0234375,0.9453125,-1.0986328125,0.42724609375,-1.52587890625,101308
1.448,0.01953125,-0.0107421875,0.9814453125,-3.41796875,0.8544921875,-1.89208984375,101308
1.45,0.0078125,-0.017578125,0.9873046875,-3.7841796875,0.48828125,-1.220703125,101308
1.451,0.064453125,-0.0126953125,0.990234375,-2.62451171875,0.67138671875,-1.3427734375,101308
1.453,-0.033203125,-0.033203125,0.974609375,-3.84521484375,0.8544921875,-1.28173828125,101308
1.455,0.0185546875,-0.00390625,1.00390625,-4.94384765625,0.732421875,-1.0986328125,101308
1.456,0.0361328125,-0.00390625,1.025390625,-4.150390625,1.0986328125,-0.79345703125,101308
1.458,0.005859375,0.0068359375,1.0390625,-2.9296875,0.9765625,-1.28173828125,101308
1.46,0.013671875,0.017578125,1.029296875,-1.03759765625,0.8544921875,-1.03759765625,101308
1.462,0.0185546875,0.01953125,1.0048828125,-0.42724609375,0.732421875,-1.3427734375,101308
1.464,0.0107421875,0.0205078125,0.986328125,-1.89208984375,0.48828125,-1.220703125,101308
1.466,0.029296875,0.02734375,0.974609375,-3.0517578125,0.6103515625,-1.3427734375,101308
1.468,0.021484375,0.04296875,0.9794921875,-4.69970703125,0.67138671875,-2.13623046875,101308
1.469,0.005859375,0.0263671875,1.021484375,-4.21142578125,0.6103515625,-1.46484375,101308
1.471,0.0205078125,0.0146484375,1.0283203125,-3.60107421875,0.732421875,-1.28173828125,101308
1.473,0.0,-0.0361328125,0.990234375,-1.46484375,-0.06103515625,-1.52587890625,101308
1.475,0.0029296875,-0.048828125,0.9599609375,-1.46484375,0.54931640625,-1.40380859375,101308
1.478,0.03515625,-0.0615234375,0.94921875,-5.7373046875,0.91552734375,-0.91552734375,101308
1.48,0.009765625,0.001953125,0.95703125,-6.40869140625,0.732421875,-1.03759765625,101308
1.482,0.02734375,-0.0107421875,0.9609375,-8.85009765625,1.40380859375,-1.28173828125,101308
1.484,0.0283203125,-0.0322265625,0.9697265625,-9.33837890625,0.6103515625,-1.0986328125,101308
1.485,0.00390625,-0.0380859375,0.9697265625,-8.36181640625,0.6103515625,-0.42724609375,101308
1.487,-0.0048828125,0.0029296875,0.9921875,-7.99560546875,0.67138671875,-1.64794921875,101308
1.489,0.0126953125,-0.0322265625,0.9794921875,-7.32421875,0.732421875,-1.46484375,101308
1.491,-0.021484375,-0.00390625,0.99609375,-6.65283203125,0.1220703125,-2.01416015625,101308
1.492,0.0341796875,0.015625,0.98046875,-7.32421875,0.6103515625,-1.953125,101308
1.494,0.068359375,-0.0048828125,0.9404296875,-11.90185546875,0.91552734375,-0.8544921875,101308
1.497,-0.013671875,0.001953125,0.962890625,-16.845703125,1.5869140625,-1.15966796875,101308
1.499,-0.0068359375,0.0009765625,1.021484375,-17.76123046875,1.8310546875,-1.220703125,101308
1.501,0.009765625,0.0146484375,1.087890625,-15.56396484375,1.15966796875,-0.67138671875,101308
1.503,0.01171875,-0.0107421875,1.1318359375,-9.521484375,1.0986328125,-1.5869140625,101308
1.505,0.0244140625,-0.0166015625,1.125,-1.52587890625,0.9765625,-1.03759765625,101308
1.508,0.0244140625,0.00390625,0.931640625,4.638671875,0.79345703125,-0.48828125,101308
1.51,0.0712890625,0.0634765625,0.9130859375,0.79345703125,0.18310546875,-1.0986328125,101308
1.512,0.0712890625,0.0498046875,0.9013671875,-2.3193359375,1.0986328125,-1.0986328125,101308
1.514,0.015625,0.0673828125,1.01171875,-5.615234375,0.8544921875,-1.220703125,101308
1.516,-0.09765625,-0.1650390625,1.109375,-6.2255859375,1.220703125,-1.03759765625,101308
1.519,-0.14453125,0.02734375,1.1748046875,10.8642578125,-0.30517578125,-0.732421875,101308
1.521,0.005859375,0.015625,1.20703125,22.88818359375,0.0,-1.220703125,101308
1.523,0.1025390625,-0.02734375,1.03515625,39.1845703125,-1.15966796875,-1.64794921875,101308
1.525,0.0458984375,-0.0556640625,0.796875,33.447265625,-0.732421875,-2.25830078125,101308
1.526,-0.0087890625,-0.02734375,0.6142578125,12.0849609375,0.30517578125,-1.64794921875,101308
1.527,0.0,-0.0341796875,0.58203125,-0.54931640625,1.708984375,-1.708984375,101308
1.529,-0.017578125,0.0205078125,0.71484375,-21.05712890625,1.46484375,-1.0986328125,101308
1.531,0.0380859375,-0.0009765625,0.9912109375,-29.052734375,1.89208984375,-0.6103515625,101308
1.533,0.064453125,0.0361328125,1.236328125,-22.216796875,1.0986328125,-1.8310546875,101308
1.535,0.0634765625,0.005859375,1.2724609375,7.4462890625,0.79345703125,-1.46484375,101308
1.537,0.0048828125,0.015625,1.0166015625,19.34814453125,0.0,-0.732421875,101308
1.539,0.01953125,-0.0517578125,0.8037109375,14.892578125,0.18310546875,-0.67138671875,101308
1.541,0.0234375,0.029296875,0.7177734375,-0.18310546875,0.1220703125,-0.91552734375,101308
1.543,-0.0458984375,-0.015625,0.7880859375,-16.6015625,0.79345703125,-0.67138671875,101308
1.544,-0.0400390625,0.021484375,0.9619140625,-25.2685546875,1.15966796875,-0.48828125,101308
1.546,0.0107421875,-0.0234375,1.15234375,-21.8505859375,1.5869140625,-1.28173828125,101308
1.549,0.0185546875,-0.0380859375,1.0927734375,1.03759765625,0.6103515625,-1.5869140625,101308
1.551,0.0126953125,-0.07421875,0.939453125,3.47900390625,0.1220703125,-1.220703125,101308
1.553,-0.00390625,-0.048828125,0.875,-3.5400390625,0.6103515625,-1.40380859375,101308
1.555,0.009765625,-0.025390625,0.875,-11.3525390625,0.54931640625,-2.01416015625,101308
1.557,0.0263671875,0.068359375,0.9560546875,-14.95361328125,0.9765625,-1.3427734375,101308
1.558,0.0576171875,0.013671875,1.08203125,-13.73291015625,0.79345703125,-1.28173828125,101308
1.56,0.0634765625,0.0361328125,1.1298828125,-4.7607421875,0.8544921875,-0.79345703125,101308
1.562,0.0380859375,0.0048828125,1.0712890625,5.37109375,0.67138671875,-1.40380859375,101308
1.564,-0.0068359375,0.0,0.9404296875,5.9814453125,0.30517578125,-1.64794921875,101308
1.566,-0.005859375,0.0048828125,0.8564453125,-2.0751953125,0.48828125,-1.77001953125,101308
1.569,0.005859375,-0.0380859375,1.00390625,-17.39501953125,1.03759765625,-0.67138671875,101308
1.57,0.029296875,-0.0126953125,1.119140625,-14.95361328125,0.9765625,-1.52587890625,101308
1.572,0.0390625,-0.017578125,1.15625,-5.55419921875,0.48828125,-0.732421875,101308
1.574,0.015625,0.001953125,1.115234375,2.99072265625,0.244140625,-1.0986328125,101308
1.576,0.00390625,-0.0244140625,1.052734375,7.6904296875,0.8544921875,-1.28173828125,101308
1.579,0.0048828125,-0.0244140625,0.91796875,3.0517578125,0.67138671875,-1.15966796875,101308
1.581,0.009765625,-0.0166015625,0.9462890625,-0.79345703125,0.42724609375,-0.42724609375,101308
1.583,0.033203125,0.0185546875,1.0224609375,-1.220703125,1.03759765625,-1.03759765625,101308
1.585,0.013671875,-0.001953125,1.0615234375,3.47900390625,0.9765625,-1.52587890625,101308
1.587,0.0263671875,0.017578125,1.0390625,7.26318359375,0.244140625,-1.15966796875,101308
1.59,-0.0009765625,0.0380859375,0.9833984375,11.16943359375,-0.18310546875,-1.46484375,101308
1.592,-0.001953125,-0.005859375,0.966796875,11.8408203125,0.06103515625,-0.91552734375,101308
1.593,0.0322265625,-0.0166015625,0.943359375,8.48388671875,0.79345703125,-1.0986328125,101308
1.595,0.03125,-0.0205078125,0.943359375,5.2490234375,0.732421875,-2.13623046875,101308
1.597,0.021484375,-0.0146484375,0.9765625,2.50244140625,0.8544921875,-1.03759765625,101308
1.599,0.01171875,-0.0107421875,1.0,0.91552734375,0.42724609375,-1.40380859375,101308
1.601,0.017578125,-0.0126953125,1.015625,1.0986328125,1.0986328125,-1.3427734375,101308
1.602,0.0185546875,-0.0205078125,0.994140625,0.9765625,0.42724609375,-1.40380859375,101308
1.604,0.0166015625,0.0087890625,0.9833984375,0.67138671875,0.244140625,-1.03759765625,101308
1.606,0.0166015625,0.0185546875,0.96484375,1.220703125,0.67138671875,-1.52587890625,101308
1.608,0.0078125,-0.0048828125,0.951171875,1.0986328125,0.732421875,-2.197265625,101308
1.61,0.0205078125,-0.0146484375,0.95703125,-3.2958984375,0.3662109375,-1.220703125,101308
1.612,0.0146484375,-0.0205078125,0.9833984375,-3.5400390625,1.3427734375,-0.67138671875,101308
1.614,0.01953125,-0.0126953125,1.0009765625,-4.94384765625,0.48828125,-1.0986328125,101308
1.616,0.025390625,-0.0087890625,0.99609375,-5.4931640625,0.732421875,-2.13623046875,101308
1.618,0.017578125,0.00390625,0.9755859375,-6.7138671875,1.15966796875,-1.708984375,101308
1.619,-0.0234375,0.0,0.974609375,-7.38525390625,0.42724609375,-1.15966796875,101308
1.621,0.0625,-0.0126953125,1.0009765625,-9.033203125,0.91552734375,-1.28173828125,101308
1.623,0.029296875,-0.0126953125,1.0703125,-5.31005859375,0.9765625,-1.220703125,101308
1.625,0.0078125,-0.0048828125,1.0556640625,-2.38037109375,0.8544921875,-1.77001953125,101308
1.627,0.0205078125,0.0126953125,1.0283203125,0.48828125,1.15966796875,-0.9765625,101308
1.629,0.001953125,-0.015625,0.9677734375,0.54931640625,0.91552734375,-0.6103515625,101308
1.631,0.00390625,-0.025390625,0.9658203125,-0.91552734375,0.06103515625,-1.03759765625,101308
1.633,0.00390625,-0.02734375,0.9912109375,-2.197265625,0.91552734375,-1.52587890625,101308
1.635,0.0126953125,-0.021484375,1.005859375,-1.89208984375,0.48828125,-1.15966796875,101308
1.636,0.021484375,0.0048828125,1.00390625,0.1220703125,0.6103515625,-1.46484375,101308
1.638,0.01953125,0.0146484375,0.9853515625,0.79345703125,0.67138671875,-1.52587890625,101308
1.64,0.0126953125,0.013671875,0.9638671875,-1.15966796875,0.6103515625,-1.5869140625,101308
1.642,0.017578125,0.0078125,0.9794921875,-2.8076171875,0.30517578125,-1.220703125,101308
1.644,0.0126953125,0.0,1.0234375,-3.35693359375,0.8544921875,-0.54931640625,101308
1.646,0.017578125,0.0078125,1.0634765625,-0.79345703125,0.6103515625,-1.28173828125,101308
1.648,0.013671875,-0.0029296875,1.056640625,2.01416015625,0.244140625,-1.708984375,101308
1.651,0.0048828125,-0.013671875,0.9794921875,4.2724609375,0.91552734375,-0.9765625,101308
1.653,0.0,-0.0087890625,0.9658203125,2.0751953125,0.244140625,-0.91552734375,101308
1.655,0.005859375,-0.0087890625,0.9658203125,0.42724609375,1.3427734375,-1.0986328125,101308
1.657,0.01953125,-0.005859375,0.9833984375,-0.91552734375,0.91552734375,-0.732421875,101308
1.659,0.0322265625,-0.001953125,0.9970703125,-1.5869140625,0.54931640625,-1.77001953125,101308
1.66,0.03515625,-0.0029296875,0.9921875,-0.18310546875,0.67138671875,-1.40380859375,101308
1.661,0.0126953125,-0.015625,0.962890625,0.79345703125,0.1220703125,-1.0986328125,101308
1.663,0.0166015625,-0.0166015625,0.9228515625,-1.220703125,0.18310546875,-1.03759765625,101308
1.665,0.017578125,-0.0029296875,0.9345703125,-3.5400390625,0.54931640625,-1.15966796875,101308
1.667,0.0185546875,-0.0126953125,0.9912109375,-3.96728515625,0.8544921875,-1.220703125,101308
1.669,0.017578125,-0.01171875,1.0322265625,-2.685546875,0.91552734375,-1.0986328125,101308
1.671,0.015625,-0.017578125,0.9921875,-1.89208984375,0.67138671875,-0.91552734375,101308
1.673,0.015625,-0.0166015625,0.98046875,-0.9765625,0.42724609375,-1.15966796875,101308
1.675,0.017578125,-0.0048828125,0.9814453125,-2.01416015625,0.732421875,-1.52587890625,101308
1.676,0.0302734375,-0.0029296875,0.9658203125,-2.5634765625,0.67138671875,-1.89208984375,101308
1.678,0.021484375,0.01171875,1.0107421875,-2.685546875,0.732421875,-0.91552734375,101308
1.682,0.0185546875,0.0068359375,1.025390625,-0.67138671875,1.0986328125,-1.15966796875,101308
1.684,0.0107421875,0.0048828125,0.9833984375,0.30517578125,0.732421875,-1.28173828125,101308
1.685,0.005859375,-0.0087890625,0.95703125,-1.64794921875,0.30517578125,-1.3427734375,101308
1.687,0.0087890625,-0.001953125,0.9521484375,-5.31005859375,0.91552734375,-1.03759765625,101308
1.689,0.0146484375,0.017578125,1.00390625,-7.2021484375,0.42724609375,-0.79345703125,101308
1.69,0.02734375,0.0068359375,1.03125,-7.75146484375,0.9765625,-1.40380859375,101308
1.692,0.017578125,-0.0087890625,1.03515625,-5.31005859375,0.54931640625,-1.708984375,101308
1.694,0.0126953125,-0.015625,1.0322265625,-2.197265625,0.3662109375,-0.79345703125,101308
1.696,0.021484375,-0.01953125,1.0029296875,-0.67138671875,0.67138671875,-1.03759765625,101308
1.698,0.0087890625,0.0029296875,0.9853515625,-1.52587890625,0.48828125,-1.77001953125,101308
1.7,0.0107421875,-0.0078125,0.9833984375,-1.3427734375,0.732421875,-1.46484375,101308
1.702,0.017578125,-0.0126953125,1.00390625,-2.01416015625,1.03759765625,-1.03759765625,101308
1.704,0.0126953125,-0.0263671875,1.0009765625,-0.6103515625,0.42724609375,-0.91552734375,101308
1.706,0.0185546875,-0.0048828125,0.986328125,1.0986328125,0.54931640625,-1.953125,101308
1.708,0.0048828125,-0.01953125,0.9443359375,1.52587890625,0.79345703125,-0.9765625,101308
1.71,0.0068359375,-0.0068359375,0.9560546875,-0.9765625,0.54931640625,-1.5869140625,101308
1.712,0.013671875,0.001953125,0.9912109375,-2.685546875,0.3662109375,-0.244140625,101308
1.714,0.017578125,-0.0146484375,1.0,-1.953125,0.79345703125,-1.89208984375,101308
1.716,0.01953125,0.015625,0.984375,-0.3662109375,0.54931640625,-0.732421875,101308
1.718,0.01953125,-0.0009765625,0.984375,0.48828125,0.30517578125,-1.220703125,101308
1.72,0.0126953125,0.0126953125,0.974609375,-0.6103515625,1.15966796875,-1.15966796875,101308
1.721,0.0185546875,0.01171875,1.0,-1.77001953125,0.42724609375,-0.732421875,101308
1.723,0.0107421875,-0.0107421875,1.0263671875,-2.3193359375,0.732421875,-1.40380859375,101308
1.725,0.0263671875,0.0166015625,1.013671875,-2.8076171875,0.91552734375,-1.3427734375,101308
1.727,0.0263671875,0.005859375,0.98828125,-3.7841796875,1.40380859375,-0.732421875,101308
1.729,0.0322265625,-0.0009765625,0.978515625,-4.8828125,0.91552734375,-1.708984375,101308
1.732,0.0283203125,-0.0146484375,1.0048828125,-7.9345703125,1.5869140625,-1.708984375,101308
1.734,0.02734375,0.001953125,1.044921875,-6.9580078125,1.220703125,-1.46484375,101308
1.736,0.02734375,-0.009765625,1.041015625,-3.60107421875,0.6103515625,-1.15966796875,101308
1.737,0.0283203125,-0.0068359375,1.009765625,-1.8310546875,0.67138671875,-1.708984375,101308
1.739,0.0234375,-0.0126953125,0.97265625,-0.91552734375,1.220703125,-1.15966796875,101308
1.743,0.0,-0.0068359375,0.95703125,-5.18798828125,1.220703125,-2.01416015625,101308
1.744,0.0166015625,-0.0078125,0.98046875,-7.14111328125,0.3662109375,-1.64794921875,101308
1.746,0.025390625,-0.015625,1.0078125,-7.50732421875,0.9765625,-1.03759765625,101308
1.748,0.013671875,-0.0263671875,1.0244140625,-5.31005859375,0.67138671875,-1.28173828125,101308
1.75,0.0185546875,-0.017578125,1.0185546875,-3.41796875,0.06103515625,-1.46484375,101308
1.753,0.013671875,-0.0234375,0.98828125,-2.5634765625,0.91552734375,-1.64794921875,101308
1.755,0.0166015625,-0.015625,1.013671875,-2.13623046875,0.42724609375,-1.28173828125,101308
1.757,0.029296875,-0.005859375,1.0263671875,-2.0751953125,0.732421875,-1.220703125,101308
1.759,0.025390625,0.0048828125,1.017578125,0.67138671875,0.6103515625,-1.5869140625,101308
1.761,0.0302734375,0.0048828125,0.9951171875,1.0986328125,0.54931640625,-2.13623046875,101308
1.763,0.0126953125,0.0009765625,0.9873046875,0.6103515625,0.30517578125,-1.52587890625,101308
1.765,0.01953125,0.0078125,0.9677734375,-0.9765625,0.42724609375,-1.3427734375,101308
1.767,0.02734375,0.0107421875,0.98828125,-1.40380859375,0.30517578125,-1.03759765625,101308
1.769,0.01953125,-0.001953125,1.00390625,-2.0751953125,0.91552734375,-1.220703125,101308
1.77,0.0107421875,-0.00390625,1.0029296875,-2.25830078125,1.220703125,-0.79345703125,101308
1.773,0.001953125,-0.0068359375,0.9814453125,-2.44140625,1.15966796875,-1.40380859375,101308
1.775,0.0185546875,-0.0107421875,0.962890625,-2.62451171875,0.9765625,-0.91552734375,101308
1.777,0.0087890625,-0.0087890625,0.9833984375,-4.21142578125,0.67138671875,-1.0986328125,101308
1.778,0.0205078125,-0.01953125,0.9990234375,-4.21142578125,1.220703125,-0.8544921875,101308
1.78,0.01171875,-0.015625,0.998046875,-4.150390625,0.18310546875,-0.9765625,101308
1.783,0.0205078125,-0.009765625,0.982421875,-2.62451171875,1.64794921875,-1.52587890625,101308
1.785,0.017578125,-0.00390625,0.9716796875,-3.2958984375,0.06103515625,-0.6103515625,101308
1.787,0.0263671875,0.0078125,0.9677734375,-3.90625,0.0,-1.40380859375,101308
1.789,0.0263671875,0.00390625,0.9833984375,-5.67626953125,0.79345703125,-1.0986328125,101308
1.791,0.0185546875,0.0205078125,0.9775390625,-6.53076171875,1.0986328125,-0.9765625,101308
1.794,0.0078125,-0.01171875,1.044921875,-5.06591796875,0.67138671875,-1.77001953125,101308
1.796,0.005859375,-0.0224609375,1.0751953125,-2.01416015625,1.28173828125,-1.28173828125,101308
1.798,-0.01171875,-0.0234375,1.0556640625,1.77001953125,1.28173828125,-1.28173828125,101308
1.8,0.015625,-0.0263671875,1.0263671875,4.45556640625,0.244140625,-1.52587890625,101308
1.802,0.017578125,-0.009765625,1.0107421875,5.9814453125,0.732421875,-1.40380859375,101308
1.802,0.0390625,-0.0224609375,0.986328125,6.16455078125,0.06103515625,-1.708984375,101308
1.804,0.0283203125,-0.013671875,0.9736328125,6.28662109375,0.67138671875,-1.8310546875,101308
1.806,0.017578125,0.0068359375,0.9658203125,3.11279296875,0.54931640625,-1.64794921875,101308
1.808,0.0126953125,-0.01171875,0.95703125,0.244140625,0.1220703125,-1.64794921875,101308
1.81,0.0185546875,-0.0009765625,0.9482421875,-2.62451171875,0.42724609375,-1.3427734375,101308
1.812,0.0166015625,-0.0078125,0.982421875,-4.0283203125,1.3427734375,-1.220703125,101308
1.814,0.0283203125,-0.0068359375,1.01953125,-2.5634765625,-0.1220703125,-1.52587890625,101308
1.816,0.0205078125,-0.00390625,0.9951171875,-1.28173828125,0.42724609375,-1.03759765625,101308
1.818,0.0283203125,-0.0048828125,0.9619140625,-1.46484375,0.67138671875,-1.3427734375,101308
1.819,0.0078125,0.0029296875,0.9384765625,-4.08935546875,0.48828125,-1.708984375,101308
1.821,0.005859375,0.01171875,0.943359375,-7.9345703125,0.79345703125,-1.15966796875,101308
1.824,0.01171875,0.001953125,1.0078125,-8.60595703125,1.0986328125,-1.40380859375,101308
1.826,0.0224609375,-0.015625,1.0439453125,-5.31005859375,1.0986328125,-1.3427734375,101308
1.828,0.0302734375,-0.0166015625,1.01953125,-1.708984375,0.54931640625,-1.03759765625,101308
1.83,0.0185546875,-0.013671875,0.98046875,-0.91552734375,0.67138671875,-1.15966796875,101308
1.832,0.0166015625,-0.021484375,0.958984375,-2.50244140625,0.67138671875,-0.91552734375,101308
1.833,0.01171875,-0.0185546875,0.9755859375,-3.60107421875,0.79345703125,-1.3427734375,101308
1.835,0.021484375,-0.005859375,0.990234375,-4.21142578125,0.79345703125,-1.220703125,101308
1.837,0.0234375,0.0146484375,1.015625,-2.74658203125,0.9765625,-1.708984375,101308
1.839,0.0263671875,0.0078125,1.0087890625,-0.6103515625,1.03759765625,-1.220703125,101308
1.841,0.017578125,-0.0029296875,0.998046875,-0.30517578125,0.42724609375,-1.220703125,101308
1.843,0.0107421875,0.0029296875,0.9658203125,-0.42724609375,0.8544921875,-1.28173828125,101308
1.844,0.0185546875,-0.001953125,0.9677734375,-1.64794921875,1.220703125,-1.46484375,101308
1.846,0.017578125,-0.0009765625,0.9970703125,-2.86865234375,0.8544921875,-1.28173828125,101308
1.848,0.021484375,-0.0205078125,1.0068359375,-2.0751953125,0.79345703125,-1.708984375,101308
1.85,0.013671875,-0.0146484375,1.02734375,-0.9765625,0.48828125,-1.03759765625,101308
1.852,0.021484375,-0.0263671875,1.017578125,-0.42724609375,0.1220703125,-1.89208984375,101308
1.855,0.0146484375,-0.021484375,0.98828125,-0.244140625,0.67138671875,-1.46484375,101308
1.857,0.0146484375,-0.0302734375,0.9990234375,-1.03759765625,0.67138671875,-1.3427734375,101308
1.859,0.0205078125,-0.0087890625,1.01171875,0.30517578125,0.6103515625,-1.15966796875,101308
1.86,0.025390625,0.0048828125,1.0166015625,1.46484375,0.9765625,-1.28173828125,101308
1.862,0.017578125,0.0087890625,1.01953125,4.150390625,0.06103515625,-1.46484375,101308
1.864,0.0263671875,0.017578125,0.990234375,3.72314453125,0.8544921875,-1.28173828125,101308
1.866,0.009765625,0.013671875,0.9736328125,3.173828125,0.91552734375,-1.708984375,101308
1.868,0.0087890625,0.013671875,0.96875,0.732421875,1.0986328125,-1.15966796875,101308
1.869,0.0234375,0.005859375,0.978515625,-1.52587890625,0.18310546875,-1.5869140625,101308
1.871,0.0224609375,0.0126953125,1.005859375,-3.11279296875,0.91552734375,-1.40380859375,101308
1.874,0.0234375,0.0126953125,1.03515625,-2.01416015625,0.1220703125,-1.708984375,101308
1.876,0.021484375,-0.001953125,1.044921875,-1.64794921875,0.54931640625,-1.03759765625,101308
1.878,0.0283203125,-0.0107421875,1.0234375,-1.220703125,0.30517578125,-1.3427734375,101308
1.88,0.0107421875,-0.0009765625,1.0087890625,0.18310546875,0.9765625,-0.8544921875,101308
1.882,0.009765625,-0.0029296875,0.9951171875,1.89208984375,0.42724609375,-1.03759765625,101308
1.885,0.001953125,-0.0244140625,0.9609375,2.197265625,0.732421875,-0.9765625,101308
1.887,0.0087890625,-0.0078125,0.966796875,1.64794921875,0.67138671875,-1.52587890625,101308
1.889,0.0234375,-0.0068359375,0.9658203125,-0.06103515625,1.220703125,-0.732421875,101308
1.891,0.0126953125,-0.017578125,0.962890625,-0.9765625,0.8544921875,-1.3427734375,101308
1.893,0.0068359375,-0.0029296875,0.955078125,-1.5869140625,0.8544921875,-0.9765625,101308
1.895,0.005859375,-0.0322265625,0.974609375,-3.41796875,0.42724609375,-0.91552734375,101308
1.897,0.0205078125,-0.0107421875,0.958984375,-3.84521484375,1.220703125,-1.28173828125,101308
1.899,0.017578125,-0.017578125,0.984375,-4.638671875,0.79345703125,-1.46484375,101308
1.901,0.021484375,-0.0166015625,1.029296875,-5.126953125,0.79345703125,-1.03759765625,101308
1.903,0.0224609375,-0.00390625,1.01171875,-2.74658203125,1.3427734375,-1.220703125,101308
1.904,0.01171875,-0.0087890625,1.0146484375,-1.89208984375,1.220703125,-1.15966796875,101308
1.906,0.01171875,-0.013671875,0.9951171875,-0.732421875,0.42724609375,-1.5869140625,101308
1.908,0.01171875,-0.0126953125,1.005859375,-2.01416015625,0.732421875,-0.8544921875,101308
1.91,0.0146484375,-0.001953125,0.99609375,-1.52587890625,1.0986328125,-1.220703125,101308
1.912,0.0205078125,0.0029296875,1.0126953125,-1.28173828125,0.6103515625,-0.79345703125,101308
1.914,0.0234375,-0.001953125,1.021484375,-0.79345703125,0.48828125,-0.91552734375,101308
1.916,0.0068359375,0.0185546875,1.0126953125,0.732421875,0.48828125,-1.40380859375,101308
1.918,0.015625,0.01953125,0.9833984375,1.220703125,0.1220703125,-1.220703125,101308
1.919,0.0166015625,-0.0126953125,0.9892578125,-1.15966796875,0.6103515625,-1.89208984375,101308
1.921,0.0234375,0.015625,1.013671875,-3.41796875,1.28173828125,-1.28173828125,101308
1.923,0.0205078125,-0.0009765625,1.017578125,-3.2958984375,0.732421875,-1.3427734375,101308
1.926,0.015625,-0.013671875,1.0146484375,-3.662109375,1.28173828125,-1.3427734375,101308
1.928,0.0126953125,-0.0205078125,1.0029296875,-3.84521484375,0.67138671875,-1.5869140625,101308
1.93,0.0166015625,-0.013671875,1.0146484375,-3.35693359375,0.91552734375,-1.64794921875,101308
1.932,0.02734375,-0.0078125,1.0087890625,-1.89208984375,0.3662109375,-1.28173828125,101308
1.934,0.03125,-0.0078125,1.0087890625,-0.18310546875,0.30517578125,-1.220703125,101308
1.935,0.017578125,-0.0087890625,0.9873046875,1.28173828125,0.30517578125,-1.03759765625,101308
1.937,0.0087890625,-0.0166015625,0.95703125,0.42724609375,0.30517578125,-0.9765625,101308
1.939,0.0078125,-0.001953125,0.9443359375,-0.6103515625,0.6103515625,-1.15966796875,101308
1.941,0.021484375,-0.0009765625,0.9580078125,-1.953125,0.732421875,-1.3427734375,101308
1.943,0.0205078125,0.0078125,0.98828125,-3.60107421875,0.67138671875,-1.220703125,101308
1.945,0.0234375,-0.0009765625,1.00390625,-3.0517578125,0.48828125,-1.52587890625,101308
1.947,0.0107421875,-0.0048828125,0.984375,-2.62451171875,0.67138671875,-1.15966796875,101308
1.949,0.0166015625,-0.021484375,0.998046875,-3.173828125,0.67138671875,-1.5869140625,101308
1.951,0.017578125,0.0,1.015625,-3.47900390625,0.48828125,-1.28173828125,101308
1.953,0.0302734375,0.00390625,1.029296875,-1.3427734375,0.91552734375,-1.46484375,101308
1.956,0.0205078125,0.0068359375,1.0234375,2.13623046875,0.06103515625,-1.28173828125,101308
1.958,0.01953125,-0.01171875,0.9892578125,3.35693359375,0.244140625,-1.5869140625,101308
1.96,0.01171875,-0.0078125,0.974609375,3.2958984375,0.42724609375,-1.40380859375,101308
1.962,0.01171875,-0.0068359375,0.9443359375,1.46484375,0.9765625,-0.91552734375,101308
1.964,0.0205078125,0.00390625,0.9609375,-1.52587890625,1.15966796875,-0.91552734375,101308
1.967,0.0244140625,0.0029296875,0.9853515625,-2.74658203125,1.220703125,-1.0986328125,101308
1.969,0.0205078125,-0.005859375,0.9921875,-2.8076171875,0.8544921875,-1.3427734375,101308
1.97,0.01953125,0.0,1.0224609375,-3.11279296875,0.91552734375,-1.953125,101308
1.972,0.033203125,-0.005859375,1.005859375,-2.62451171875,0.732421875,-0.91552734375,101308
1.974,0.01953125,-0.025390625,1.0009765625,-2.99072265625,0.79345703125,-1.28173828125,101308
1.976,0.009765625,-0.0205078125,0.9873046875,-4.08935546875,0.42724609375,-1.15966796875,101308
1.977,0.0146484375,-0.021484375,1.001953125,-5.7373046875,0.244140625,-1.953125,101308
1.979,0.0107421875,-0.0234375,1.0234375,-4.5166015625,1.0986328125,-0.9765625,101308
1.981,0.02734375,-0.0078125,1.01953125,-3.2958984375,0.9765625,-0.8544921875,101308
1.983,0.025390625,-0.001953125,1.0,-1.3427734375,-0.1220703125,-0.67138671875,101308
1.985,0.0185546875,0.00390625,0.974609375,-0.91552734375,1.220703125,-0.9765625,101308
1.987,0.01171875,0.0048828125,0.96875,-2.3193359375,0.54931640625,-1.3427734375,101308
1.989,0.0263671875,0.013671875,0.9716796875,-4.57763671875,0.54931640625,-0.9765625,101308
1.991,0.021484375,0.00390625,1.001953125,-4.8828125,0.79345703125,-0.91552734375,101308
1.993,0.0244140625,0.0078125,1.0107421875,-5.0048828125,0.6103515625,-1.89208984375,101308
1.994,0.017578125,0.0,1.0087890625,-4.2724609375,0.3662109375,-2.0751953125,101308
1.997,0.0068359375,-0.0078125,1.0,-3.60107421875,0.0,-1.03759765625,101308
1.999,0.0048828125,-0.0244140625,1.0166015625,-3.23486328125,1.03759765625,-1.15966796875,101308
2.001,0.0166015625,-0.037109375,1.0322265625,-1.5869140625,1.0986328125,-1.89208984375,101308
2.003,0.0078125,-0.0048828125,1.0126953125,0.18310546875,0.732421875,-1.953125,101308
2.005,0.00390625,-0.0166015625,0.994140625,0.79345703125,0.67138671875,-1.28173828125,101308
2.007,0.0234375,-0.0126953125,0.9853515625,1.708984375,0.54931640625,-1.220703125,101308
2.009,0.0234375,0.00390625,0.966796875,1.5869140625,-0.1220703125,-1.220703125,101308
2.01,0.03515625,-0.0029296875,0.9609375,1.89208984375,1.15966796875,-0.79345703125,101308
2.012,0.025390625,-0.001953125,0.9794921875,1.0986328125,0.42724609375,-1.52587890625,101308
2.014,0.0302734375,-0.0068359375,0.970703125,0.42724609375,1.03759765625,-1.708984375,101308
2.017,0.025390625,-0.001953125,0.9736328125,-0.9765625,0.42724609375,-1.64794921875,101308
2.019,0.0205078125,-0.009765625,1.00390625,-1.77001953125,0.732421875,-1.46484375,101308
2.02,0.0126953125,-0.0166015625,0.9990234375,-2.0751953125,0.67138671875,-0.6103515625,101308
2.022,0.005859375,-0.0126953125,0.99609375,-2.197265625,0.9765625,-0.9765625,101308
2.024,0.0087890625,-0.0234375,1.0107421875,-2.8076171875,0.91552734375,-1.64794921875,101308
2.027,0.0078125,0.005859375,1.01953125,-2.62451171875,0.42724609375,-1.28173828125,101308
2.029,0.0185546875,-0.0029296875,1.001953125,-2.44140625,1.3427734375,-0.9765625,101308
2.031,0.0107421875,0.0048828125,1.0009765625,-1.40380859375,0.67138671875,-0.48828125,101308
2.033,0.01953125,0.0,0.984375,-1.8310546875,0.54931640625,-1.15966796875,101308
2.035,0.01953125,0.01171875,0.95703125,-1.52587890625,0.8544921875,-0.91552734375,101308
2.038,0.01953125,0.0107421875,0.9951171875,-4.21142578125,1.0986328125,-1.40380859375,101308
2.04,0.015625,0.0078125,0.9921875,-4.21142578125,0.42724609375,-0.9765625,101308
2.042,0.02734375,0.0087890625,0.982421875,-4.33349609375,0.42724609375,-1.46484375,101308
2.044,0.017578125,0.0,0.98828125,-5.18798828125,0.54931640625,-0.79345703125,101308
2.045,0.009765625,0.0009765625,0.9951171875,-6.16455078125,1.03759765625,-1.46484375,101308
2.047,0.013671875,-0.0126953125,1.015625,-5.859375,0.3662109375,-1.8310546875,101308
2.049,0.0126953125,-0.005859375,1.01953125,-5.79833984375,0.30517578125,-1.46484375,101308
2.051,0.01171875,-0.0048828125,1.015625,-3.7841796875,0.06103515625,-1.46484375,101308
2.053,0.0048828125,-0.00390625,1.0322265625,-2.3193359375,0.30517578125,-0.9765625,101308
2.054,0.0107421875,-0.0087890625,1.009765625,-1.0986328125,0.6103515625,-1.28173828125,101308
2.056,0.0068359375,-0.01171875,0.9853515625,-0.42724609375,0.67138671875,-1.3427734375,101308
2.058,0.0087890625,-0.015625,0.9638671875,-0.91552734375,0.48828125,-1.8310546875,101308
2.06,0.0146484375,-0.0107421875,0.9765625,-1.953125,0.732421875,-1.15966796875,101308
2.062,0.00390625,-0.015625,0.9736328125,-1.89208984375,0.732421875,-1.220703125,101308
2.063,0.01953125,-0.013671875,0.9892578125,-1.52587890625,0.48828125,-1.28173828125,101308
2.065,0.03125,-0.0029296875,1.0078125,-1.0986328125,0.67138671875,-1.5869140625,101308
2.069,0.0107421875,-0.00390625,0.9990234375,0.244140625,0.79345703125,-1.15966796875,101308
2.071,0.0107421875,-0.0048828125,0.9912109375,0.54931640625,0.6103515625,-0.67138671875,101308
2.072,0.0107421875,-0.005859375,0.9892578125,0.18310546875,1.28173828125,-0.79345703125,101308
2.074,0.015625,-0.0078125,0.9990234375,0.732421875,1.220703125,-1.52587890625,101308
2.076,0.00390625,-0.009765625,1.0029296875,0.732421875,0.67138671875,-0.9765625,101308
2.078,0.0087890625,-0.01171875,0.9970703125,-0.06103515625,0.30517578125,-0.67138671875,101308
2.079,0.0166015625,-0.0224609375,0.9970703125,-0.30517578125,0.8544921875,-0.9765625,101308
2.081,0.0126953125,-0.021484375,0.9990234375,-0.732421875,0.8544921875,-0.8544921875,101308
2.083,0.013671875,-0.0068359375,0.994140625,-0.18310546875,1.220703125,-1.46484375,101308
2.085,0.0185546875,-0.005859375,0.9970703125,-0.9765625,0.6103515625,-0.732421875,101308
2.087,0.0234375,-0.0126953125,0.9970703125,-1.220703125,0.8544921875,-1.40380859375,101308
2.089,0.017578125,-0.0048828125,1.0078125,-1.8310546875,0.48828125,-1.5869140625,101308
2.091,0.0224609375,0.0078125,1.0048828125,-0.91552734375,0.67138671875,-1.46484375,101308
2.093,0.02734375,-0.0029296875,1.0068359375,-0.18310546875,0.54931640625,-1.15966796875,101308
2.095,0.02734375,0.00390625,0.9794921875,0.1220703125,0.3662109375,-0.67138671875,101308
2.096,0.01171875,0.0029296875,0.9775390625,-1.0986328125,0.732421875,-1.5869140625,101308
2.099,0.0126953125,-0.0009765625,0.96875,-2.50244140625,0.54931640625,-1.0986328125,101308
2.101,0.0244140625,-0.001953125,0.9775390625,-2.3193359375,0.6103515625,-1.708984375,101308
2.103,0.0205078125,-0.001953125,1.00390625,-2.685546875,0.8544921875,-1.52587890625,101308
2.105,0.01171875,-0.0029296875,1.005859375,-2.01416015625,0.30517578125,-1.0986328125,101308
2.107,0.0126953125,-0.017578125,1.001953125,-1.52587890625,0.30517578125,-1.708984375,101308
2.108,0.0107421875,-0.009765625,0.9931640625,-2.0751953125,0.1220703125,-1.46484375,101308
2.11,0.0205078125,-0.0146484375,0.994140625,-1.708984375,0.732421875,-1.708984375,101308
2.112,0.017578125,-0.0078125,0.9775390625,-1.3427734375,0.91552734375,-1.15966796875,101308
2.113,0.0234375,-0.0068359375,0.9892578125,-2.50244140625,0.54931640625,0.06103515625,101308
2.115,0.0244140625,0.0048828125,0.982421875,-2.0751953125,0.54931640625,-1.5869140625,101308
2.117,0.0283203125,-0.001953125,0.994140625,-0.9765625,0.8544921875,-1.15966796875,101308
2.119,0.0205078125,0.0009765625,0.99609375,-1.220703125,0.54931640625,-1.3427734375,101308
2.121,0.021484375,-0.0107421875,0.9765625,-1.8310546875,0.67138671875,-1.3427734375,101308
2.123,0.03125,-0.0107421875,0.9755859375,-2.50244140625,0.6103515625,-1.15966796875,101308
2.125,0.009765625,-0.0126953125,1.005859375,-2.38037109375,0.48828125,-1.3427734375,101308
2.127,0.0302734375,-0.025390625,1.0029296875,-1.89208984375,0.79345703125,-1.40380859375,101308
2.129,0.021484375,-0.013671875,0.98828125,-0.79345703125,1.5869140625,-0.8544921875,101308
2.131,0.017578125,-0.0107421875,0.9794921875,-2.3193359375,0.8544921875,-1.220703125,101308
2.133,0.0,0.0029296875,0.96875,-3.90625,0.30517578125,-1.28173828125,101308
2.135,0.0078125,-0.0166015625,0.9775390625,-5.55419921875,0.91552734375,-1.40380859375,101308
2.137,0.0146484375,-0.005859375,0.9931640625,-6.04248046875,0.8544921875,-0.8544921875,101308
2.139,0.0185546875,-0.0048828125,1.0087890625,-4.7607421875,0.30517578125,-1.708984375,101308
2.141,0.0224609375,0.0185546875,1.02734375,-3.90625,0.42724609375,-0.9765625,101308
2.143,0.01171875,0.0048828125,1.0185546875,-2.99072265625,-0.06103515625,-1.220703125,101308
2.145,-0.001953125,-0.017578125,1.0107421875,-2.13623046875,1.03759765625,-1.40380859375,101308
2.146,-0.0087890625,-0.0283203125,0.9970703125,-3.84521484375,0.0,-1.953125,101308
2.149,0.0302734375,-0.00390625,1.0234375,-2.5634765625,0.3662109375,-1.28173828125,101308
2.151,0.037109375,-0.001953125,1.033203125,-2.5634765625,0.06103515625,-1.89208984375,101308
2.153,-0.00390625,-0.0087890625,1.021484375,-1.8310546875,0.54931640625,-1.40380859375,101308
2.155,0.05078125,0.0205078125,0.9921875,-0.244140625,0.6103515625,-1.52587890625,101308
2.157,0.064453125,-0.001953125,1.001953125,0.30517578125,0.42724609375,-1.52587890625,101308
2.16,-0.044921875,-0.0224609375,1.03125,4.45556640625,0.54931640625,-0.8544921875,101308
2.162,-0.0283203125,0.009765625,0.9990234375,7.8125,-0.1220703125,-1.15966796875,101308
2.163,-0.0126953125,-0.0107421875,0.9765625,6.8359375,0.42724609375,-0.91552734375,101308
2.165,-0.0009765625,-0.0390625,0.9482421875,4.8828125,-0.18310546875,-0.732421875,101308
2.167,0.0283203125,-0.0390625,0.91015625,0.42724609375,0.42724609375,-1.0986328125,101308
2.17,-0.00390625,0.0078125,0.9453125,-10.7421875,0.42724609375,-1.40380859375,101308
2.172,-0.0048828125,0.0380859375,1.001953125,-12.20703125,0.79345703125,-1.708984375,101308
2.174,0.0302734375,0.009765625,1.078125,-9.82666015625,0.3662109375,-0.8544921875,101308
2.176,0.064453125,-0.0048828125,1.1181640625,-3.60107421875,0.8544921875,-1.89208984375,101308
2.178,0.03515625,-0.0029296875,1.1513671875,7.080078125,0.48828125,-1.28173828125,101308
2.18,-0.0068359375,0.0146484375,1.0087890625,16.78466796875,0.42724609375,-1.0986328125,101308
2.182,0.017578125,-0.0126953125,0.8662109375,13.0615234375,0.244140625,-0.48828125,101308
2.184,0.03125,-0.0107421875,0.8251953125,3.35693359375,0.732421875,-1.708984375,101308
2.186,0.00390625,-0.0048828125,0.8818359375,-6.2255859375,0.0,-0.67138671875,101308
2.187,0.01171875,-0.01953125,0.990234375,-9.70458984375,1.15966796875,-0.67138671875,101308
2.19,0.033203125,-0.013671875,1.0576171875,-4.150390625,0.732421875,-1.03759765625,101308
2.192,0.0322265625,-0.017578125,1.046875,0.6103515625,0.79345703125,-1.15966796875,101308
2.194,0.013671875,-0.0087890625,0.98046875,2.50244140625,-0.06103515625,-1.708984375,101308
2.195,-0.0087890625,-0.0009765625,0.9306640625,-0.06103515625,1.0986328125,-0.48828125,101308
2.197,-0.0068359375,-0.0078125,0.94921875,-4.39453125,0.9765625,-1.220703125,101308
2.201,0.0302734375,-0.0146484375,1.0537109375,-4.638671875,0.6103515625,-1.220703125,101308
2.203,0.0244140625,-0.0205078125,1.0859375,0.1220703125,0.79345703125,-1.64794921875,101308
2.204,0.0263671875,-0.0029296875,1.044921875,3.47900390625,0.18310546875,-1.15966796875,101308
2.206,0.013671875,0.0029296875,1.0087890625,5.06591796875,0.48828125,-2.25830078125,101308
2.208,0.00390625,-0.0029296875,0.9794921875,2.8076171875,0.9765625,-1.40380859375,101308
2.212,0.015625,-0.01171875,0.9921875,1.28173828125,0.67138671875,-1.220703125,101308
2.213,0.0205078125,0.0107421875,1.025390625,1.0986328125,0.1220703125,-1.40380859375,101308
2.215,0.013671875,-0.0048828125,1.0185546875,4.21142578125,0.3662109375,-1.220703125,101308
2.217,0.013671875,-0.013671875,0.986328125,4.7607421875,0.732421875,-1.5869140625,101308
2.219,0.013671875,-0.0146484375,0.96875,2.5634765625,0.06103515625,-1.64794921875,101308
2.22,0.001953125,0.0068359375,0.96484375,1.52587890625,0.3662109375,-1.220703125,101308
2.222,0.0078125,-0.005859375,0.9755859375,0.244140625,0.67138671875,-1.0986328125,101308
2.224,0.0078125,0.005859375,1.0,0.91552734375,0.79345703125,-1.64794921875,101308
2.226,0.0166015625,-0.0078125,1.0087890625,2.0751953125,0.30517578125,-1.03759765625,101308
2.228,0.021484375,0.0,0.994140625,2.38037109375,0.244140625,-1.28173828125,101308
2.231,0.0224609375,0.0029296875,1.0009765625,3.23486328125,0.48828125,-1.52587890625,101308
2.233,0.0126953125,-0.0029296875,0.99609375,3.5400390625,0.1220703125,-1.28173828125,101308
2.235,0.0107421875,-0.00390625,0.9931640625,3.96728515625,0.244140625,-1.46484375,101308
2.236,-0.0009765625,-0.0068359375,0.9873046875,3.173828125,1.0986328125,-0.91552734375,101308
2.238,0.009765625,-0.0126953125,0.9775390625,3.41796875,0.30517578125,-1.3427734375,101308
2.242,0.0205078125,-0.0087890625,1.0126953125,4.39453125,0.79345703125,-1.0986328125,101308
2.244,0.0087890625,-0.0146484375,0.97265625,4.638671875,0.1220703125,-1.77001953125,101308
2.245,-0.0029296875,-0.029296875,0.9755859375,3.96728515625,-0.3662109375,-1.708984375,101308
2.247,-0.001953125,-0.017578125,0.994140625,4.45556640625,0.54931640625,-1.40380859375,101308
2.249,0.0107421875,-0.0146484375,0.9921875,3.47900390625,0.06103515625,-1.40380859375,101308
2.252,0.01953125,-0.00390625,1.03125,4.45556640625,0.30517578125,-1.8310546875,101308
2.254,0.0087890625,-0.0107421875,1.021484375,6.34765625,0.18310546875,-1.3427734375,101308
2.256,0.0068359375,0.0,1.00390625,7.6904296875,1.220703125,-1.03759765625,101308
2.258,-0.0087890625,0.0078125,0.9921875,7.01904296875,2.01416015625,-1.28173828125,101308
2.26,0.0595703125,0.001953125,1.0224609375,6.34765625,3.35693359375,-1.03759765625,101308
2.261,0.0185546875,-0.0498046875,1.1142578125,2.8076171875,7.6904296875,-1.64794921875,101308
2.263,0.1181640625,-0.1455078125,1.423828125,-46.9970703125,57.67822265625,-1.8310546875,101308
2.265,-0.064453125,0.046875,1.5283203125,-14.892578125,63.4765625,-2.13623046875,101308
2.267,0.029296875,0.3310546875,1.9462890625,-10.31494140625,3.90625,-1.0986328125,101308
2.269,0.0693359375,0.0078125,1.240234375,11.8408203125,-47.119140625,-0.79345703125,101308
2.27,0.0712890625,-0.0263671875,1.216796875,5.7373046875,-59.9365234375,-0.67138671875,101308
2.272,0.0419921875,-0.0810546875,0.8876953125,-5.67626953125,-45.7763671875,-1.77001953125,101308
2.274,0.013671875,-0.0810546875,0.8193359375,-0.42724609375,-16.17431640625,-1.64794921875,101308
2.276,0.029296875,-0.0498046875,0.5234375,-2.62451171875,23.37646484375,-2.197265625,101308
2.278,-0.0009765625,0.01953125,0.5224609375,-9.94873046875,27.83203125,-2.86865234375,101308
2.28,-0.02734375,0.07421875,0.5771484375,-13.73291015625,19.47021484375,-2.74658203125,101308
2.283,0.0,0.078125,0.8779296875,-19.53125,-10.7421875,-1.953125,101308
2.285,0.0078125,0.0810546875,1.1083984375,-21.42333984375,-35.64453125,-2.38037109375,101308
2.287,0.1025390625,0.025390625,1.31640625,-21.91162109375,-46.0205078125,-1.52587890625,101308
2.288,-0.076171875,-0.076171875,1.4052734375,-13.97705078125,-35.09521484375,-2.197265625,101308
2.29,0.0234375,-0.0703125,1.1396484375,3.47900390625,-3.47900390625,-2.0751953125,101308
2.291,0.015625,-0.0810546875,1.0546875,4.8828125,5.79833984375,-1.64794921875,101308
2.293,0.0029296875,-0.0732421875,0.8701171875,-4.5166015625,14.7705078125,-1.8310546875,101308
2.295,-0.02734375,-0.0244140625,0.810546875,-9.033203125,12.63427734375,-2.50244140625,101308
2.297,0.0205078125,-0.0146484375,0.849609375,-11.90185546875,3.2958984375,-2.50244140625,101308
2.299,0.001953125,0.0244140625,0.822265625,-7.8125,-9.33837890625,-2.50244140625,101308
2.301,0.0439453125,0.0,0.8818359375,-11.04736328125,-21.05712890625,-2.197265625,101308
2.303,0.0498046875,-0.0703125,1.119140625,-20.56884765625,-22.0947265625,-2.44140625,101308
2.304,0.0517578125,-0.0908203125,1.3896484375,-27.83203125,-1.220703125,-3.47900390625,101308
2.306,0.0703125,-0.1015625,1.6220703125,-22.705078125,18.5546875,-3.60107421875,101308
2.308,0.0595703125,-0.04296875,1.646484375,-12.6953125,29.47998046875,-4.33349609375,101308
2.31,0.10546875,-0.009765625,1.3974609375,-1.3427734375,21.78955078125,-4.2724609375,101308
2.313,0.0107421875,-0.03515625,0.73046875,6.591796875,-15.07568359375,-3.72314453125,101308
2.315,0.0751953125,-0.07421875,0.583984375,-3.84521484375,-24.10888671875,-5.4931640625,101308
2.317,0.0244140625,-0.1064453125,0.6796875,-18.798828125,-21.97265625,-5.4931640625,101308
2.319,0.0791015625,-0.173828125,0.9501953125,-29.60205078125,-8.11767578125,-5.79833984375,101308
2.321,0.025390625,-0.1591796875,1.2666015625,-32.958984375,12.451171875,-6.04248046875,101308
2.322,0.08984375,-0.1328125,1.3720703125,-30.57861328125,22.76611328125,-6.591796875,101308
2.324,0.064453125,-0.041015625,1.45703125,-12.939453125,33.69140625,-8.30078125,101308
2.326,0.0498046875,0.005859375,1.25,-6.4697265625,17.578125,-8.48388671875,101308
2.328,0.052734375,0.01171875,1.0234375,-6.16455078125,-6.04248046875,-8.85009765625,101308
2.329,0.0498046875,-0.0078125,0.859375,-12.26806640625,-26.123046875,-8.7890625,101308
2.331,0.0732421875,-0.044921875,0.8720703125,-16.2353515625,-31.92138671875,-9.8876953125,101308
2.333,0.048828125,-0.0810546875,1.072265625,-26.06201171875,-20.751953125,-10.31494140625,101308
2.335,0.0947265625,-0.1259765625,1.203125,-27.64892578125,0.48828125,-11.16943359375,101308
2.337,0.119140625,-0.072265625,1.375,-22.15576171875,23.193359375,-11.8408203125,101308
2.339,0.130859375,0.0048828125,1.2978515625,-15.869140625,28.6865234375,-12.5732421875,101308
2.341,0.119140625,0.0537109375,1.1875,-16.2353515625,13.12255859375,-13.0615234375,101308
2.344,0.10546875,0.013671875,1.0654296875,-18.37158203125,-16.845703125,-13.671875,101308
2.345,0.1025390625,-0.029296875,1.08984375,-23.193359375,-26.30615234375,-14.34326171875,101308
2.347,0.0908203125,-0.0673828125,1.142578125,-22.03369140625,-21.97265625,-14.46533203125,101308
2.349,0.0986328125,-0.103515625,1.181640625,-19.8974609375,-4.94384765625,-15.93017578125,101308
2.351,0.0927734375,-0.0732421875,1.1865234375,-20.1416015625,20.44677734375,-16.78466796875,101308
2.353,0.0830078125,-0.04296875,1.205078125,-21.240234375,23.62060546875,-17.76123046875,101308
2.354,0.0830078125,0.021484375,1.2275390625,-24.658203125,19.10400390625,-17.88330078125,101308
2.356,0.0869140625,0.02734375,1.287109375,-23.86474609375,7.01904296875,-18.24951171875,101308
2.358,0.07421875,0.015625,1.310546875,-22.5830078125,-13.48876953125,-19.287109375,101308
2.36,0.0830078125,-0.001953125,1.2216796875,-19.4091796875,-20.44677734375,-18.85986328125,101308
2.363,0.0751953125,-0.0556640625,1.1318359375,-19.22607421875,-9.521484375,-21.05712890625,101308
2.365,0.072265625,-0.048828125,1.11328125,-21.66748046875,3.0517578125,-22.39990234375,101308
2.367,0.052734375,-0.017578125,1.18359375,-23.49853515625,11.65771484375,-23.0712890625,101308
2.369,0.0625,0.013671875,1.2666015625,-24.658203125,12.20703125,-23.0712890625,101308
2.371,0.0576171875,0.0244140625,1.3916015625,-25.2685546875,0.91552734375,-24.10888671875,101308
2.374,0.0439453125,0.0341796875,1.4033203125,-19.53125,-12.39013671875,-24.59716796875,101308
2.376,0.0498046875,0.0234375,1.33203125,-17.02880859375,-16.4794921875,-25.45166015625,101308
2.378,0.041015625,-0.00390625,1.234375,-18.12744140625,-7.75146484375,-25.87890625,101308
2.379,0.0439453125,-0.0078125,1.2041015625,-18.9208984375,-0.48828125,-26.4892578125,101308
2.381,0.041015625,0.009765625,1.2255859375,-19.6533203125,3.84521484375,-26.79443359375,101308
2.385,0.0498046875,0.041015625,1.3203125,-20.81298828125,-2.5634765625,-27.40478515625,101308
2.387,0.0390625,0.02734375,1.3271484375,-19.95849609375,-9.3994140625,-28.564453125,101308
2.388,0.04296875,0.021484375,1.3466796875,-19.22607421875,-14.58740234375,-28.50341796875,101308
2.39,0.0400390625,0.0009765625,1.3369140625,-19.4091796875,-15.625,-28.99169921875,101308
2.392,0.03515625,-0.0224609375,1.35546875,-19.47021484375,-10.55908203125,-29.60205078125,101308
2.393,0.033203125,-0.0068359375,1.35546875,-19.8974609375,-7.87353515625,-29.35791015625,101308
2.395,0.025390625,-0.0126953125,1.3388671875,-19.34814453125,-3.35693359375,-29.72412109375,101308
2.397,0.015625,0.033203125,1.3505859375,-19.53125,-1.28173828125,-30.76171875,101308
2.399,0.0146484375,0.0234375,1.333984375,-19.1650390625,-4.33349609375,-31.31103515625,101308
2.401,0.0087890625,0.0166015625,1.3466796875,-19.10400390625,-9.94873046875,-30.1513671875,101308
2.403,0.0068359375,0.0029296875,1.3291015625,-19.4091796875,-13.5498046875,-31.18896484375,101308
2.404,0.0224609375,-0.015625,1.3330078125,-19.59228515625,-12.75634765625,-31.25,101308
2.406,0.0068359375,-0.0126953125,1.3193359375,-19.59228515625,-10.6201171875,-30.33447265625,101308
2.408,0.0068359375,-0.0126953125,1.318359375,-18.98193359375,-5.4931640625,-31.73828125,101308
2.41,0.0107421875,-0.009765625,1.310546875,-19.287109375,-3.2958984375,-31.1279296875,101308
2.412,0.0,0.005859375,1.3447265625,-19.59228515625,-4.69970703125,-30.70068359375,101308
2.415,0.001953125,0.017578125,1.357421875,-18.00537109375,-10.1318359375,-30.21240234375,101308
2.417,0.0,0.005859375,1.357421875,-18.4326171875,-11.5966796875,-30.33447265625,101308
2.419,0.0078125,0.00390625,1.3623046875,-17.51708984375,-12.451171875,-30.3955078125,101308
2.42,-0.00390625,0.0078125,1.3544921875,-17.27294921875,-9.94873046875,-30.76171875,101308
2.422,0.00390625,0.005859375,1.3193359375,-16.845703125,-8.11767578125,-30.33447265625,101308
2.424,-0.001953125,0.0146484375,1.29296875,-16.78466796875,-7.4462890625,-30.33447265625,101308
2.426,-0.0009765625,0.0185546875,1.2802734375,-16.29638671875,-8.11767578125,-30.76171875,101308
2.428,-0.0048828125,0.029296875,1.26953125,-15.19775390625,-10.498046875,-30.1513671875,101308
2.429,-0.017578125,0.017578125,1.283203125,-15.93017578125,-13.00048828125,-30.21240234375,101308
2.431,-0.0087890625,0.0234375,1.3125,-15.93017578125,-13.916015625,-30.76171875,101308
2.434,-0.0009765625,0.0185546875,1.3232421875,-15.07568359375,-11.5966796875,-30.82275390625,101308
2.436,-0.0078125,0.017578125,1.3349609375,-14.22119140625,-9.46044921875,-29.9072265625,101308
2.438,-0.01171875,0.0341796875,1.3310546875,-13.97705078125,-8.23974609375,-30.45654296875,101308
2.44,-0.0146484375,0.033203125,1.3212890625,-14.16015625,-8.97216796875,-30.517578125,101308
2.442,-0.0068359375,0.03125,1.32421875,-13.18359375,-9.94873046875,-30.517578125,101308
2.445,-0.0009765625,0.0322265625,1.3037109375,-12.451171875,-11.23046875,-30.94482421875,101308
2.447,-0.0185546875,0.03125,1.2890625,-12.451171875,-9.82666015625,-30.8837890625,101308
2.449,-0.0078125,0.0244140625,1.2939453125,-12.51220703125,-8.056640625,-31.005859375,101308
2.451,-0.0166015625,0.0361328125,1.30078125,-11.474609375,-6.2255859375,-31.31103515625,101308
2.453,-0.005859375,0.0244140625,1.2978515625,-11.3525390625,-6.28662109375,-31.67724609375,101308
2.456,-0.0029296875,0.017578125,1.310546875,-11.16943359375,-8.1787109375,-32.1044921875,101308
2.458,-0.0087890625,0.0166015625,1.3232421875,-10.19287109375,-9.033203125,-31.982421875,101308
2.46,-0.0087890625,0.0068359375,1.328125,-10.6201171875,-8.056640625,-32.28759765625,101308
2.462,-0.009765625,0.001953125,1.32421875,-9.09423828125,-7.8125,-31.92138671875,101308
2.463,-0.01171875,0.001953125,1.3134765625,-9.94873046875,-6.2255859375,-31.79931640625,101308
2.465,-0.001953125,0.0029296875,1.314453125,-9.033203125,-5.79833984375,-32.28759765625,101308
2.467,-0.0048828125,0.0048828125,1.29296875,-9.09423828125,-6.4697265625,-32.04345703125,101308
2.469,-0.00390625,0.0126953125,1.29296875,-9.3994140625,-7.75146484375,-32.1044921875,101308
2.471,-0.0146484375,0.01171875,1.2802734375,-8.9111328125,-8.6669921875,-32.04345703125,101308
2.473,-0.0068359375,-0.00390625,1.296875,-8.48388671875,-8.6669921875,-31.73828125,101308
2.475,-0.017578125,0.005859375,1.2978515625,-8.1787109375,-7.6904296875,-32.470703125,101308
2.477,-0.0087890625,0.0029296875,1.3154296875,-8.6669921875,-6.7138671875,-32.53173828125,101308
2.479,-0.00390625,0.0146484375,1.3203125,-7.2021484375,-6.28662109375,-32.16552734375,101308
2.481,-0.0126953125,0.015625,1.3193359375,-7.87353515625,-6.89697265625,-32.3486328125,101308
2.483,-0.0068359375,0.01171875,1.318359375,-7.26318359375,-6.9580078125,-32.04345703125,101308
2.485,-0.001953125,0.009765625,1.3017578125,-6.9580078125,-6.77490234375,-33.203125,101308
2.487,-0.0048828125,0.0087890625,1.2890625,-7.080078125,-6.9580078125,-32.958984375,101308
2.488,-0.0048828125,0.0224609375,1.283203125,-6.65283203125,-5.9814453125,-33.26416015625,101308
2.49,-0.0078125,0.0146484375,1.283203125,-6.4697265625,-5.92041015625,-32.89794921875,101308
2.492,-0.0087890625,0.0166015625,1.2705078125,-6.28662109375,-5.2490234375,-33.447265625,101308
2.494,0.0048828125,0.0302734375,1.2666015625,-5.7373046875,-5.4931640625,-34.1796875,101308
2.495,0.00390625,0.0244140625,1.2587890625,-5.79833984375,-5.79833984375,-34.3017578125,101308
2.497,0.0009765625,0.03125,1.2548828125,-5.79833984375,-6.103515625,-33.63037109375,101308
2.499,-0.0009765625,0.025390625,1.265625,-5.55419921875,-5.7373046875,-34.7900390625,101308
2.501,0.0048828125,0.0166015625,1.2724609375,-4.638671875,-6.9580078125,-34.7900390625,101308
2.503,0.015625,0.0224609375,1.2685546875,-5.37109375,-6.2255859375,-34.48486328125,101308
2.505,0.005859375,0.015625,1.248046875,-4.69970703125,-6.28662109375,-35.94970703125,101308
2.507,0.0068359375,0.0185546875,1.2568359375,-5.06591796875,-6.7138671875,-35.64453125,101308
2.509,-0.001953125,0.01171875,1.26953125,-4.8828125,-6.9580078125,-35.46142578125,101308
2.511,-0.0107421875,0.00390625,1.2685546875,-5.0048828125,-7.080078125,-36.07177734375,101308
2.513,0.0,0.0068359375,1.25,-4.7607421875,-7.4462890625,-36.1328125,101308
2.516,0.0,0.009765625,1.2548828125,-4.638671875,-6.8359375,-36.376953125,101308
2.518,-0.0048828125,0.001953125,1.2490234375,-3.96728515625,-6.8359375,-36.1328125,101308
2.52,0.0009765625,0.0068359375,1.2431640625,-5.0048828125,-5.92041015625,-37.04833984375,101308
2.522,-0.005859375,-0.0029296875,1.2529296875,-4.5166015625,-6.591796875,-36.68212890625,101308
2.524,0.0078125,0.0107421875,1.267578125,-4.57763671875,-6.591796875,-36.7431640625,101308
2.527,0.001953125,-0.0029296875,1.2578125,-3.84521484375,-7.01904296875,-37.04833984375,101308
2.528,-0.001953125,-0.0048828125,1.244140625,-4.33349609375,-6.8359375,-37.53662109375,101308
2.53,0.001953125,-0.0029296875,1.251953125,-3.90625,-7.4462890625,-37.841796875,101308
2.532,0.0,-0.001953125,1.251953125,-4.45556640625,-6.2255859375,-37.53662109375,101308
2.534,-0.00390625,-0.0068359375,1.26171875,-3.60107421875,-6.16455078125,-37.65869140625,101308
2.536,-0.0146484375,0.0,1.251953125,-4.638671875,-6.89697265625,-37.90283203125,101308
2.538,-0.009765625,-0.001953125,1.2568359375,-3.96728515625,-7.568359375,-38.4521484375,101308
2.54,-0.0087890625,0.00390625,1.248046875,-3.96728515625,-8.056640625,-38.02490234375,101308
2.542,-0.0126953125,0.005859375,1.2509765625,-3.96728515625,-8.30078125,-38.57421875,101308
2.544,-0.005859375,0.0048828125,1.2490234375,-3.662109375,-8.056640625,-38.87939453125,101308
2.546,-0.013671875,0.0029296875,1.251953125,-3.2958984375,-9.033203125,-39.0625,101308
2.548,-0.0107421875,0.0029296875,1.240234375,-3.662109375,-8.30078125,-39.73388671875,101308
2.55,-0.0166015625,-0.001953125,1.24609375,-4.0283203125,-8.1787109375,-39.85595703125,101308
2.552,-0.0029296875,0.0087890625,1.2548828125,-3.41796875,-8.544921875,-40.34423828125,101308
2.554,-0.0068359375,-0.0029296875,1.248046875,-3.7841796875,-9.3994140625,-40.771484375,101308
2.557,-0.0107421875,0.00390625,1.2421875,-3.662109375,-9.27734375,-40.771484375,101308
2.559,-0.01953125,-0.0078125,1.2431640625,-3.41796875,-8.6669921875,-42.05322265625,101308
2.561,-0.015625,-0.009765625,1.2470703125,-2.74658203125,-9.09423828125,-42.724609375,101308
2.563,-0.017578125,-0.005859375,1.2431640625,-3.60107421875,-9.09423828125,-42.6025390625,101308
2.564,-0.013671875,0.00390625,1.2265625,-3.7841796875,-9.27734375,-43.02978515625,101308
2.568,-0.015625,-0.0146484375,1.220703125,-2.9296875,-9.8876953125,-44.61669921875,101308
2.57,-0.0078125,-0.0126953125,1.2275390625,-2.25830078125,-10.25390625,-43.76220703125,101308
2.571,-0.017578125,-0.0009765625,1.234375,-3.0517578125,-10.009765625,-45.22705078125,101308
2.573,-0.00390625,-0.0146484375,1.23828125,-1.708984375,-10.25390625,-45.71533203125,101308
2.575,-0.0126953125,-0.0126953125,1.2265625,-1.89208984375,-10.498046875,-46.20361328125,101308
2.576,-0.015625,-0.013671875,1.2216796875,-1.77001953125,-10.8642578125,-45.5322265625,101308
2.578,-0.013671875,-0.0205078125,1.2197265625,-1.15966796875,-11.71875,-46.2646484375,101308
2.58,-0.0126953125,-0.017578125,1.21875,-1.64794921875,-11.962890625,-47.18017578125,101308
2.582,-0.01171875,-0.013671875,1.216796875,-0.8544921875,-12.02392578125,-46.69189453125,101308
2.584,-0.0263671875,-0.0146484375,1.2080078125,-0.6103515625,-12.39013671875,-47.7294921875,101308
2.586,-0.0087890625,-0.01171875,1.21484375,-0.244140625,-12.451171875,-48.03466796875,101308
2.587,-0.01171875,-0.0146484375,1.2099609375,-0.732421875,-12.14599609375,-47.8515625,101308
2.589,-0.0185546875,-0.0107421875,1.216796875,-0.30517578125,-12.939453125,-49.13330078125,101308
2.591,-0.01171875,-0.015625,1.2080078125,-0.06103515625,-13.12255859375,-50.35400390625,101308
2.593,-0.0068359375,-0.01171875,1.23046875,-0.732421875,-14.0380859375,-49.98779296875,101308
