Time,ACC_X,ACC_Y,ACC_Z,GY_X,GY_Y,GY_Z,P
0.0,0.0400390625,-0.0029296875,0.9990234375,-0.9765625,0.54931640625,-0.732421875,101422
0.002,0.05078125,-0.017578125,0.990234375,-1.3427734375,0.30517578125,-1.52587890625,101422
0.004,0.0458984375,-0.0146484375,0.9951171875,-0.8544921875,0.8544921875,-1.0986328125,101422
0.006,0.0478515625,-0.0048828125,0.986328125,-0.9765625,0.9765625,-0.6103515625,101422
0.008,0.0517578125,-0.0107421875,0.99609375,-1.15966796875,0.732421875,-0.91552734375,101422
0.009,0.046875,-0.0009765625,0.9833984375,-1.708984375,1.0986328125,-1.52587890625,101422
0.011,0.04296875,-0.015625,0.994140625,-1.89208984375,0.8544921875,-1.15966796875,101422
0.013,0.048828125,-0.0107421875,0.990234375,-2.44140625,1.46484375,-0.732421875,101422
0.015,0.044921875,-0.0126953125,0.9912109375,-2.01416015625,0.48828125,-1.46484375,101422
0.017,0.04296875,-0.0126953125,0.9921875,-1.77001953125,1.28173828125,-0.91552734375,101422
0.019,0.0458984375,-0.01953125,1.005859375,-1.52587890625,0.18310546875,-1.28173828125,101422
0.022,0.0556640625,-0.0048828125,0.9990234375,-0.244140625,0.48828125,-1.28173828125,101422
0.024,0.0439453125,-0.0029296875,0.998046875,-0.1220703125,0.91552734375,-1.03759765625,101422
0.025,0.046875,-0.0126953125,0.9833984375,-1.03759765625,0.79345703125,-1.52587890625,101422
0.027,0.046875,-0.0126953125,0.98046875,-1.64794921875,0.91552734375,-0.732421875,101422
0.029,0.0419921875,-0.0048828125,0.9775390625,-2.9296875,0.48828125,-1.0986328125,101422
0.031,0.0419921875,-0.009765625,0.99609375,-3.0517578125,0.67138671875,-0.48828125,101422
0.033,0.048828125,-0.01953125,0.998046875,-3.0517578125,0.67138671875,-1.28173828125,101422
0.034,0.044921875,-0.0068359375,1.009765625,-2.13623046875,0.42724609375,-1.28173828125,101422
0.036,0.05078125,-0.0146484375,1.0029296875,-0.8544921875,0.732421875,-1.64794921875,101422
0.038,0.0439453125,-0.0107421875,1.0068359375,0.0,0.48828125,-0.9765625,101422
0.041,0.044921875,-0.0068359375,0.984375,-0.30517578125,0.91552734375,-0.6103515625,101422
0.043,0.0390625,-0.0126953125,0.9873046875,-0.91552734375,0.91552734375,-1.708984375,101422
0.045,0.0546875,-0.0126953125,0.9921875,-2.685546875,0.30517578125,-1.5869140625,101422
0.047,0.0517578125,-0.009765625,0.998046875,-3.0517578125,0.30517578125,-1.220703125,101422
0.049,0.0517578125,-0.013671875,0.9931640625,-2.50244140625,1.03759765625,-1.46484375,101422
0.052,0.04296875,-0.01953125,0.98046875,-1.46484375,1.0986328125,-1.46484375,101422
0.054,0.0458984375,-0.01171875,0.9970703125,-1.03759765625,1.40380859375,-1.28173828125,101422
0.056,0.0556640625,-0.0048828125,0.9951171875,-1.03759765625,0.9765625,-1.708984375,101422
0.058,0.0458984375,-0.0107421875,0.99609375,-0.42724609375,0.67138671875,-1.64794921875,101422
0.06,0.0517578125,-0.0126953125,0.9951171875,-0.48828125,0.732421875,-1.5869140625,101422
0.062,0.0439453125,-0.0185546875,0.98828125,-1.220703125,0.54931640625,-0.8544921875,101422
0.064,0.0458984375,-0.01171875,0.9755859375,-2.685546875,0.67138671875,-0.9765625,101422
0.066,0.0546875,-0.01171875,0.9990234375,-3.0517578125,0.54931640625,-1.64794921875,101422
0.068,0.0419921875,-0.0205078125,1.005859375,-3.35693359375,0.30517578125,-1.15966796875,101422
0.07,0.0478515625,-0.0166015625,1.001953125,-2.86865234375,0.91552734375,-1.15966796875,101422
0.071,0.048828125,-0.0087890625,1.001953125,-0.9765625,1.0986328125,-1.220703125,101422
0.073,0.0439453125,-0.0126953125,0.9970703125,-0.1220703125,0.6103515625,-0.9765625,101422
0.075,0.044921875,-0.015625,0.990234375,1.15966796875,0.30517578125,-1.220703125,101422
0.077,0.0390625,-0.0146484375,0.9853515625,0.79345703125,1.15966796875,-1.15966796875,101422
0.079,0.044921875,-0.0068359375,0.974609375,-0.30517578125,0.91552734375,-0.6103515625,101422
0.081,0.048828125,-0.0126953125,0.978515625,-1.3427734375,0.9765625,-1.15966796875,101422
0.083,0.0302734375,-0.009765625,0.98046875,-3.11279296875,0.91552734375,-0.91552734375,101422
0.084,0.0556640625,-0.013671875,0.9970703125,-2.9296875,0.67138671875,-0.79345703125,101422
0.086,0.0517578125,-0.0126953125,1.0029296875,-3.173828125,0.732421875,-1.77001953125,101422
0.088,0.0439453125,-0.0126953125,0.9921875,-1.953125,1.3427734375,-1.0986328125,101422
0.09,0.0400390625,-0.0029296875,1.0,-1.28173828125,0.732421875,-1.0986328125,101422
0.093,0.046875,-0.0087890625,1.005859375,-0.6103515625,0.18310546875,-1.28173828125,101422
0.095,0.046875,-0.005859375,0.9951171875,-0.3662109375,0.6103515625,-0.9765625,101422
0.097,0.060546875,-0.0009765625,0.9912109375,0.244140625,0.1220703125,-1.0986328125,101422
0.099,0.048828125,-0.0166015625,0.986328125,-0.91552734375,0.6103515625,-0.79345703125,101422
0.101,0.0478515625,-0.0166015625,0.9892578125,-2.0751953125,0.91552734375,-1.40380859375,101422
0.102,0.048828125,-0.0078125,1.0029296875,-2.25830078125,0.42724609375,-1.15966796875,101422
0.104,0.05078125,-0.00390625,1.0029296875,-2.9296875,0.06103515625,-0.79345703125,101422
0.106,0.048828125,-0.0068359375,1.005859375,-1.77001953125,0.91552734375,-1.28173828125,101422
0.108,0.0517578125,-0.0107421875,1.0029296875,-1.3427734375,0.6103515625,-1.220703125,101422
0.109,0.03515625,-0.0048828125,0.9931640625,-0.79345703125,0.67138671875,-1.40380859375,101422
0.112,0.04296875,-0.0146484375,0.98828125,-2.13623046875,0.9765625,-1.46484375,101422
0.114,0.041015625,-0.009765625,0.9990234375,-2.0751953125,1.28173828125,-0.79345703125,101422
0.116,0.0576171875,-0.0087890625,1.0029296875,-1.28173828125,0.732421875,-1.28173828125,101422
0.118,0.0498046875,-0.0146484375,1.001953125,-0.3662109375,0.42724609375,-1.8310546875,101422
0.12,0.04296875,0.0009765625,0.9951171875,0.18310546875,1.03759765625,-0.6103515625,101422
0.123,0.048828125,-0.013671875,0.97265625,-0.54931640625,1.03759765625,-0.8544921875,101422
0.125,0.0458984375,-0.0126953125,0.984375,-1.46484375,0.3662109375,-1.46484375,101422
0.127,0.0478515625,-0.0166015625,0.9853515625,-2.99072265625,0.91552734375,-1.64794921875,101422
0.129,0.0458984375,-0.009765625,0.978515625,-2.8076171875,0.8544921875,-0.9765625,101422
0.131,0.0498046875,-0.0068359375,1.0009765625,-2.74658203125,0.79345703125,-1.220703125,101422
0.134,0.0546875,-0.00390625,1.00390625,-1.64794921875,0.9765625,-1.3427734375,101422
0.135,0.0458984375,-0.0107421875,0.9951171875,-0.3662109375,0.732421875,-0.79345703125,101422
0.137,0.046875,-0.01171875,0.9990234375,-0.3662109375,0.9765625,-1.0986328125,101422
0.139,0.0556640625,-0.0107421875,0.986328125,-0.48828125,0.732421875,-1.3427734375,101422
0.141,0.0458984375,-0.0078125,0.9775390625,-1.5869140625,0.48828125,-0.732421875,101422
0.142,0.046875,-0.0048828125,0.9853515625,-1.953125,0.6103515625,-1.28173828125,101422
0.144,0.0439453125,-0.0224609375,0.9833984375,-2.13623046875,1.64794921875,-0.91552734375,101422
0.146,0.0478515625,-0.0205078125,1.0009765625,-3.11279296875,1.03759765625,-0.9765625,101422
0.148,0.05859375,-0.009765625,1.0166015625,-2.44140625,0.244140625,-1.40380859375,101422
0.15,0.052734375,-0.015625,1.005859375,-1.3427734375,0.1220703125,-0.67138671875,101422
0.152,0.052734375,0.001953125,1.005859375,-0.54931640625,0.6103515625,-1.0986328125,101422
0.154,0.0400390625,-0.015625,0.9873046875,-0.6103515625,1.15966796875,-0.91552734375,101422
0.156,0.048828125,-0.0087890625,0.9833984375,-0.79345703125,0.18310546875,-0.91552734375,101422
0.158,0.0478515625,-0.0107421875,0.9873046875,-1.953125,0.30517578125,-0.9765625,101422
0.159,0.0419921875,-0.0078125,0.9970703125,-1.953125,0.6103515625,-1.40380859375,101422
0.161,0.0439453125,-0.0068359375,0.998046875,-1.89208984375,0.42724609375,-1.52587890625,101422
0.164,0.0537109375,-0.0068359375,1.00390625,-2.25830078125,1.3427734375,-1.0986328125,101422
0.166,0.046875,-0.01953125,0.994140625,-1.46484375,1.15966796875,-1.52587890625,101422
0.168,0.0390625,-0.0107421875,1.0068359375,-1.89208984375,1.220703125,-1.0986328125,101422
0.17,0.041015625,-0.017578125,1.0029296875,-1.708984375,0.732421875,-0.91552734375,101422
0.172,0.046875,-0.0166015625,1.00390625,-0.732421875,0.42724609375,-0.9765625,101422
0.173,0.0517578125,-0.009765625,0.994140625,-0.732421875,0.9765625,-1.15966796875,101422
0.175,0.0517578125,-0.0068359375,0.9892578125,-0.1220703125,0.6103515625,-1.0986328125,101422
0.177,0.0498046875,-0.0166015625,0.9775390625,0.54931640625,0.54931640625,-1.52587890625,101422
0.179,0.046875,-0.0029296875,0.982421875,-0.6103515625,0.48828125,-1.15966796875,101422
0.181,0.046875,-0.01171875,0.9775390625,-1.8310546875,0.79345703125,-1.52587890625,101422
0.184,0.0537109375,-0.009765625,0.98828125,-4.150390625,0.48828125,-1.52587890625,101422
0.185,0.044921875,-0.0087890625,0.986328125,-3.35693359375,0.79345703125,-1.15966796875,101422
0.187,0.0478515625,-0.013671875,1.0068359375,-3.173828125,0.9765625,-1.40380859375,101422
0.189,0.0537109375,-0.00390625,1.005859375,-1.89208984375,0.9765625,-0.91552734375,101422
0.191,0.044921875,-0.015625,1.0107421875,-0.79345703125,0.79345703125,-1.40380859375,101422
0.194,0.0517578125,-0.005859375,1.0009765625,0.244140625,1.03759765625,-0.91552734375,101422
0.196,0.0478515625,-0.0087890625,0.9990234375,0.06103515625,1.15966796875,-0.91552734375,101422
0.198,0.0439453125,-0.009765625,0.990234375,-0.1220703125,0.9765625,-0.6103515625,101422
0.2,0.0537109375,-0.0068359375,0.990234375,-1.5869140625,0.48828125,-1.28173828125,101422
0.202,0.046875,-0.0068359375,0.994140625,-3.662109375,0.54931640625,-0.9765625,101422
0.205,0.0478515625,-0.0087890625,1.00390625,-4.8828125,0.67138671875,-1.0986328125,101422
0.207,0.0576171875,-0.005859375,1.0107421875,-3.72314453125,0.67138671875,-1.0986328125,101422
0.209,0.0595703125,-0.0087890625,1.015625,-1.64794921875,0.48828125,-0.8544921875,101422
0.21,0.046875,-0.0107421875,1.0185546875,-0.79345703125,0.6103515625,-1.15966796875,101422
0.212,0.046875,-0.01171875,0.9892578125,0.1220703125,0.18310546875,-1.28173828125,101422
0.214,0.046875,-0.009765625,0.986328125,1.220703125,0.79345703125,-1.708984375,101422
0.216,0.0537109375,-0.0029296875,0.9931640625,-0.1220703125,0.732421875,-1.0986328125,101422
0.218,0.052734375,-0.01171875,0.9794921875,-0.06103515625,0.42724609375,-1.89208984375,101422
0.219,0.046875,-0.0126953125,0.9853515625,-1.52587890625,0.732421875,-1.220703125,101422
0.221,0.048828125,-0.013671875,0.9765625,-2.86865234375,0.91552734375,-1.220703125,101422
0.224,0.0478515625,-0.00390625,0.986328125,-2.50244140625,1.03759765625,-0.9765625,101422
0.226,0.0400390625,-0.0166015625,0.9931640625,-3.35693359375,1.28173828125,-0.42724609375,101422
0.228,0.0478515625,-0.0087890625,1.0078125,-2.5634765625,0.54931640625,-1.15966796875,101422
0.23,0.05078125,-0.0107421875,0.9912109375,-0.91552734375,0.06103515625,-1.28173828125,101422
0.232,0.052734375,-0.0068359375,1.0009765625,0.18310546875,1.03759765625,-1.28173828125,101422
0.235,0.0498046875,-0.0146484375,0.98046875,0.1220703125,0.18310546875,-0.9765625,101422
0.237,0.046875,-0.015625,0.9794921875,-0.732421875,0.79345703125,-1.15966796875,101422
0.239,0.03515625,-0.0244140625,0.9794921875,-1.64794921875,1.03759765625,-0.6103515625,101422
0.241,0.0498046875,-0.0087890625,0.9990234375,-3.72314453125,0.54931640625,-0.732421875,101422
0.243,0.044921875,-0.01171875,0.998046875,-3.90625,0.91552734375,-0.9765625,101422
0.246,0.05859375,-0.009765625,1.0107421875,-2.86865234375,0.30517578125,-1.46484375,101422
0.248,0.0400390625,-0.009765625,1.005859375,-0.8544921875,1.03759765625,-1.46484375,101422
0.25,0.041015625,-0.0048828125,0.9990234375,-0.1220703125,0.244140625,-1.28173828125,101422
0.252,0.04296875,-0.0078125,0.998046875,-0.18310546875,1.0986328125,-0.9765625,101422
0.253,0.0478515625,-0.0126953125,0.998046875,-0.6103515625,0.79345703125,-1.953125,101422
0.254,0.046875,-0.0068359375,0.9931640625,-0.54931640625,0.54931640625,-1.5869140625,101422
0.256,0.0439453125,-0.015625,0.9775390625,-0.79345703125,0.6103515625,-0.79345703125,101422
0.258,0.046875,-0.0126953125,0.99609375,-1.46484375,0.67138671875,-1.220703125,101422
0.26,0.0478515625,-0.013671875,0.9921875,-2.62451171875,0.67138671875,-0.9765625,101422
0.262,0.0458984375,-0.0078125,0.9892578125,-3.60107421875,0.3662109375,-1.52587890625,101422
0.264,0.05078125,-0.0107421875,1.00390625,-2.8076171875,0.79345703125,-1.77001953125,101422
0.266,0.056640625,-0.0078125,1.0048828125,-1.8310546875,0.9765625,-0.9765625,101422
0.268,0.048828125,0.0,1.0087890625,-0.732421875,-0.06103515625,-1.64794921875,101422
0.269,0.04296875,-0.0166015625,1.005859375,-0.54931640625,0.732421875,-0.67138671875,101422
0.271,0.044921875,-0.015625,0.9970703125,0.244140625,0.8544921875,-1.40380859375,101422
0.273,0.044921875,-0.021484375,0.9931640625,-0.48828125,0.91552734375,-1.89208984375,101422
0.276,0.0478515625,-0.0166015625,0.9921875,-1.708984375,1.220703125,-1.03759765625,101422
0.278,0.052734375,-0.0048828125,0.99609375,-2.685546875,0.6103515625,-1.03759765625,101422
0.28,0.052734375,-0.0205078125,0.9990234375,-3.23486328125,0.6103515625,-0.8544921875,101422
0.282,0.0556640625,-0.00390625,0.9912109375,-2.99072265625,0.48828125,-1.52587890625,101422
0.284,0.046875,-0.01171875,0.9990234375,-2.38037109375,0.732421875,-0.79345703125,101422
0.285,0.05078125,-0.0087890625,1.001953125,-1.220703125,1.0986328125,-1.708984375,101422
0.287,0.056640625,-0.01171875,1.001953125,-0.91552734375,1.03759765625,-1.708984375,101422
0.289,0.0498046875,-0.01171875,0.9970703125,0.42724609375,1.03759765625,-0.48828125,101422
0.291,0.0400390625,-0.0166015625,0.9814453125,0.732421875,0.8544921875,-1.3427734375,101422
0.293,0.048828125,-0.0166015625,0.9755859375,-0.54931640625,0.8544921875,-1.0986328125,101422
0.295,0.0498046875,-0.0166015625,0.9912109375,-2.8076171875,1.15966796875,-1.15966796875,101422
0.297,0.052734375,-0.013671875,0.9912109375,-3.60107421875,0.54931640625,-1.64794921875,101422
0.299,0.046875,-0.005859375,0.9873046875,-3.0517578125,0.6103515625,-1.3427734375,101422
0.301,0.048828125,-0.0146484375,1.0078125,-2.86865234375,0.18310546875,-0.67138671875,101422
0.303,0.052734375,-0.0107421875,0.9873046875,-1.40380859375,0.8544921875,-1.28173828125,101422
0.306,0.046875,0.001953125,0.99609375,-0.79345703125,0.9765625,-1.03759765625,101422
0.308,0.0478515625,-0.0126953125,0.9853515625,-0.79345703125,1.28173828125,-0.6103515625,101422
0.31,0.048828125,-0.0185546875,0.9873046875,-0.79345703125,0.6103515625,-1.64794921875,101422
0.312,0.05078125,-0.0166015625,0.9951171875,-0.91552734375,0.244140625,-0.91552734375,101422
0.314,0.041015625,-0.0068359375,1.001953125,-1.953125,0.9765625,-1.28173828125,101422
0.317,0.048828125,-0.013671875,0.9970703125,-2.74658203125,0.67138671875,-1.15966796875,101422
0.319,0.056640625,-0.009765625,0.990234375,-1.89208984375,0.30517578125,-1.03759765625,101422
0.32,0.041015625,-0.0029296875,0.998046875,-1.77001953125,0.732421875,-1.64794921875,101422
0.322,0.0439453125,-0.013671875,0.99609375,-1.0986328125,0.54931640625,-1.52587890625,101422
0.324,0.0537109375,-0.0166015625,1.001953125,-1.708984375,0.732421875,-1.708984375,101422
0.326,0.0380859375,-0.009765625,0.9921875,-0.42724609375,0.42724609375,-1.15966796875,101422
0.327,0.052734375,-0.013671875,0.9912109375,-0.732421875,0.54931640625,-1.40380859375,101422
0.329,0.048828125,-0.0048828125,0.984375,-0.42724609375,1.15966796875,-1.0986328125,101422
0.331,0.05078125,-0.0146484375,0.974609375,-0.8544921875,1.15966796875,-1.40380859375,101422
0.333,0.0498046875,-0.0126953125,0.9931640625,-2.25830078125,1.3427734375,-1.0986328125,101422
0.335,0.052734375,-0.01171875,0.9951171875,-2.197265625,0.67138671875,-1.77001953125,101422
0.337,0.0478515625,-0.0048828125,1.0,-2.3193359375,0.79345703125,-0.9765625,101422
0.339,0.0439453125,-0.005859375,0.986328125,-1.953125,0.67138671875,-1.220703125,101422
0.341,0.048828125,-0.0087890625,0.99609375,-1.220703125,0.3662109375,-0.91552734375,101422
0.343,0.0556640625,-0.013671875,1.0029296875,-1.77001953125,0.3662109375,-0.9765625,101422
0.344,0.041015625,-0.01171875,0.984375,-1.40380859375,0.54931640625,-1.46484375,101422
0.347,0.0380859375,-0.0126953125,0.99609375,-1.220703125,1.0986328125,-0.732421875,101422
0.349,0.0517578125,-0.005859375,0.998046875,-1.40380859375,0.244140625,-1.15966796875,101422
0.351,0.0546875,-0.0224609375,0.9912109375,-1.46484375,0.54931640625,-1.77001953125,101422
0.353,0.048828125,0.0,0.9931640625,-1.77001953125,0.6103515625,-1.52587890625,101422
0.355,0.044921875,-0.009765625,0.9951171875,-0.9765625,0.91552734375,-0.8544921875,101422
0.356,0.0390625,-0.0126953125,0.986328125,-1.5869140625,0.67138671875,-0.9765625,101422
0.358,0.048828125,-0.0078125,1.001953125,-1.77001953125,1.15966796875,-0.67138671875,101422
0.36,0.046875,-0.0146484375,0.9931640625,-1.77001953125,0.9765625,-1.3427734375,101422
0.362,0.0498046875,-0.017578125,0.9912109375,-1.52587890625,0.732421875,-0.79345703125,101422
0.364,0.04296875,-0.009765625,1.0048828125,-1.89208984375,0.91552734375,-1.220703125,101422
0.367,0.0546875,-0.0048828125,0.9970703125,-1.28173828125,0.244140625,-1.220703125,101421
0.369,0.0546875,0.001953125,0.9990234375,-1.5869140625,1.15966796875,-1.220703125,101421
0.371,0.056640625,-0.0068359375,1.0009765625,-1.708984375,0.48828125,-0.54931640625,101421
0.373,0.052734375,-0.0078125,1.0078125,-0.42724609375,0.1220703125,-1.0986328125,101421
0.375,0.046875,-0.005859375,0.9853515625,-0.42724609375,0.67138671875,-0.9765625,101421
0.378,0.0458984375,-0.0029296875,0.994140625,-1.64794921875,0.1220703125,-1.64794921875,101421
0.38,0.0400390625,-0.001953125,0.9892578125,-1.8310546875,1.03759765625,-0.91552734375,101421
0.382,0.046875,-0.0107421875,1.001953125,-1.64794921875,0.30517578125,-0.67138671875,101421
0.384,0.048828125,-0.0068359375,0.9921875,-0.91552734375,0.67138671875,-0.8544921875,101421
0.385,0.0458984375,-0.0126953125,0.9912109375,-0.8544921875,0.48828125,-1.64794921875,101421
0.388,0.037109375,-0.0078125,0.9921875,-1.220703125,1.220703125,-0.9765625,101421
0.39,0.046875,-0.015625,0.990234375,-1.03759765625,0.732421875,-0.8544921875,101421
0.392,0.04296875,-0.0087890625,0.9892578125,-1.89208984375,1.0986328125,-1.0986328125,101421
0.394,0.04296875,-0.017578125,0.99609375,-2.38037109375,0.1220703125,-1.03759765625,101421
0.396,0.05078125,-0.0107421875,0.982421875,-3.11279296875,0.6103515625,-1.8310546875,101421
0.397,0.0498046875,-0.009765625,0.98828125,-2.9296875,0.9765625,-0.6103515625,101421
0.399,0.044921875,-0.0048828125,0.9970703125,-2.25830078125,0.8544921875,-1.46484375,101421
0.401,0.0439453125,-0.013671875,1.0087890625,-1.77001953125,0.67138671875,-0.732421875,101421
0.403,0.0498046875,-0.0185546875,1.0185546875,-1.40380859375,0.18310546875,-1.5869140625,101421
0.405,0.0537109375,-0.0107421875,0.9990234375,-0.48828125,1.0986328125,-0.9765625,101421
0.407,0.046875,-0.0078125,0.9892578125,-1.28173828125,0.3662109375,-1.40380859375,101421
0.409,0.0419921875,-0.013671875,0.9912109375,-1.0986328125,1.64794921875,-1.15966796875,101421
0.411,0.052734375,-0.005859375,0.9873046875,-1.77001953125,1.220703125,-1.03759765625,101421
0.412,0.0546875,-0.009765625,0.9921875,-2.74658203125,0.79345703125,-1.953125,101421
0.414,0.052734375,-0.0068359375,0.9921875,-2.99072265625,0.732421875,-1.708984375,101421
0.416,0.044921875,-0.0224609375,1.0,-2.50244140625,0.6103515625,-1.15966796875,101421
0.419,0.0458984375,-0.0146484375,0.9990234375,-1.28173828125,0.42724609375,-1.0986328125,101421
0.421,0.0517578125,-0.01171875,0.9970703125,-0.3662109375,0.9765625,-1.220703125,101421
0.423,0.0478515625,-0.01171875,0.984375,0.0,0.42724609375,-0.67138671875,101421
0.425,0.05078125,-0.005859375,0.990234375,0.06103515625,1.64794921875,-1.28173828125,101421
0.427,0.0439453125,-0.0009765625,0.98046875,-0.3662109375,0.48828125,-1.15966796875,101421
0.428,0.052734375,-0.0078125,0.9814453125,-0.18310546875,0.9765625,-1.15966796875,101421
0.43,0.052734375,-0.015625,0.9765625,-1.8310546875,0.79345703125,-1.64794921875,101421
0.432,0.048828125,-0.005859375,0.982421875,-2.50244140625,0.42724609375,-1.28173828125,101421
0.434,0.052734375,-0.0087890625,0.9755859375,-3.35693359375,0.732421875,-1.3427734375,101421
0.435,0.0498046875,-0.01171875,0.9912109375,-2.62451171875,0.67138671875,-0.79345703125,101421
0.438,0.048828125,-0.0029296875,1.0146484375,-2.3193359375,0.79345703125,-1.220703125,101421
0.44,0.05078125,-0.0166015625,1.0029296875,-0.79345703125,0.67138671875,-1.3427734375,101421
0.442,0.048828125,-0.0146484375,0.9990234375,-0.48828125,0.48828125,-1.40380859375,101421
0.444,0.05078125,-0.0166015625,0.9921875,-0.30517578125,1.15966796875,-0.79345703125,101421
0.446,0.0517578125,-0.0146484375,0.9833984375,-1.03759765625,0.8544921875,-1.46484375,101421
0.449,0.044921875,-0.0146484375,0.986328125,-1.52587890625,1.03759765625,-0.732421875,101421
0.451,0.05078125,-0.0078125,0.984375,-2.13623046875,0.91552734375,-0.8544921875,101421
0.453,0.0419921875,-0.005859375,0.974609375,-1.953125,0.48828125,-1.0986328125,101421
0.455,0.0556640625,-0.0146484375,0.9990234375,-2.62451171875,0.48828125,-0.79345703125,101421
0.457,0.0478515625,-0.0146484375,1.0048828125,-1.953125,1.3427734375,-1.15966796875,101421
0.46,0.04296875,-0.01953125,1.0009765625,-1.46484375,0.67138671875,-1.28173828125,101421
0.461,0.046875,-0.009765625,1.015625,-1.220703125,1.220703125,-1.46484375,101421
0.464,0.041015625,-0.0087890625,1.001953125,-0.91552734375,0.732421875,-0.732421875,101421
0.466,0.0556640625,-0.0107421875,0.9970703125,-0.9765625,0.06103515625,-1.0986328125,101421
0.468,0.0400390625,-0.0107421875,0.9873046875,-1.28173828125,1.220703125,-0.91552734375,101421
0.468,0.04296875,-0.015625,0.98828125,-1.03759765625,0.9765625,-1.03759765625,101421
0.47,0.041015625,-0.0087890625,0.9921875,-2.01416015625,0.8544921875,-1.46484375,101421
0.472,0.048828125,-0.0185546875,0.986328125,-2.8076171875,0.8544921875,-0.6103515625,101421
0.474,0.0546875,-0.0048828125,0.9873046875,-2.44140625,0.79345703125,-1.03759765625,101421
0.476,0.0458984375,-0.01171875,0.9970703125,-1.5869140625,0.18310546875,-0.6103515625,101421
0.478,0.046875,-0.013671875,0.9990234375,-1.220703125,0.8544921875,-0.91552734375,101421
0.48,0.048828125,0.0009765625,0.9892578125,-0.9765625,1.40380859375,-1.220703125,101421
0.482,0.044921875,-0.0048828125,0.990234375,-1.46484375,0.9765625,-1.64794921875,101421
0.484,0.0419921875,-0.0146484375,0.9931640625,-1.89208984375,0.30517578125,-0.8544921875,101421
0.485,0.0546875,-0.013671875,1.0,-2.8076171875,0.30517578125,-1.8310546875,101421
0.487,0.046875,-0.0078125,0.990234375,-2.38037109375,0.6103515625,-1.0986328125,101421
0.49,0.0380859375,-0.0048828125,0.9990234375,-2.62451171875,1.0986328125,-0.9765625,101421
0.492,0.052734375,-0.0068359375,1.0,-2.38037109375,0.6103515625,-1.220703125,101421
0.494,0.0498046875,-0.0068359375,1.0,-1.03759765625,1.220703125,-1.15966796875,101421
0.496,0.05078125,-0.013671875,0.9931640625,0.54931640625,0.67138671875,-1.52587890625,101421
0.498,0.0419921875,-0.01171875,1.0029296875,0.8544921875,0.67138671875,-0.732421875,101421
0.499,0.0498046875,-0.0126953125,1.001953125,0.244140625,0.18310546875,-0.9765625,101421
0.501,0.0458984375,-0.0068359375,0.97265625,-0.9765625,0.54931640625,-1.8310546875,101421
0.503,0.0478515625,-0.0107421875,0.9794921875,-1.77001953125,0.3662109375,-1.0986328125,101421
0.505,0.0498046875,-0.00390625,0.9853515625,-3.5400390625,0.8544921875,-1.220703125,101421
0.507,0.0478515625,-0.01171875,0.990234375,-3.72314453125,0.732421875,-1.03759765625,101421
0.509,0.0419921875,0.0,1.0,-3.35693359375,0.79345703125,-1.46484375,101421
0.51,0.05859375,-0.0029296875,1.00390625,-1.953125,0.732421875,-0.8544921875,101421
0.512,0.046875,-0.0087890625,1.0078125,-1.46484375,0.8544921875,-1.3427734375,101421
0.514,0.0458984375,-0.00390625,1.0029296875,0.06103515625,0.30517578125,-1.46484375,101421
0.516,0.041015625,-0.0048828125,0.9970703125,-0.30517578125,0.30517578125,-1.15966796875,101421
0.518,0.0419921875,-0.0126953125,0.9951171875,-0.67138671875,0.79345703125,-0.91552734375,101421
0.521,0.044921875,-0.01171875,0.9873046875,-1.708984375,1.0986328125,-1.3427734375,101421
0.523,0.048828125,-0.01953125,0.99609375,-2.01416015625,0.67138671875,-1.52587890625,101421
0.525,0.046875,-0.0185546875,0.9970703125,-1.5869140625,0.67138671875,-0.79345703125,101421
0.526,0.0517578125,-0.015625,0.9921875,-2.50244140625,0.06103515625,-0.79345703125,101421
0.528,0.0419921875,-0.01171875,1.0,-1.5869140625,1.28173828125,-1.28173828125,101421
0.529,0.0478515625,-0.0107421875,1.0009765625,-1.46484375,1.0986328125,-1.15966796875,101421
0.531,0.0458984375,-0.01171875,0.9970703125,-1.03759765625,0.732421875,-0.79345703125,101421
0.533,0.046875,-0.0048828125,1.0,-0.67138671875,0.48828125,-1.03759765625,101421
0.535,0.0400390625,-0.0126953125,0.98828125,-0.91552734375,0.9765625,-1.40380859375,101421
0.537,0.0439453125,-0.0068359375,1.0,-1.708984375,0.54931640625,-1.89208984375,101421
0.539,0.046875,-0.0146484375,0.990234375,-1.46484375,0.67138671875,-1.52587890625,101421
0.541,0.0478515625,-0.0078125,0.99609375,-2.0751953125,0.42724609375,-1.89208984375,101421
0.543,0.046875,-0.01171875,0.990234375,-2.197265625,0.30517578125,-0.6103515625,101421
0.544,0.05078125,-0.01953125,0.998046875,-1.953125,0.48828125,-1.953125,101421
0.546,0.04296875,-0.0185546875,1.0029296875,-1.220703125,0.9765625,-0.79345703125,101421
0.548,0.0458984375,-0.013671875,0.9921875,-0.18310546875,0.06103515625,-1.3427734375,101421
0.551,0.046875,-0.0029296875,0.9873046875,-0.48828125,0.54931640625,-1.15966796875,101421
0.553,0.0478515625,-0.0146484375,0.982421875,-1.28173828125,0.8544921875,-1.40380859375,101421
0.555,0.0439453125,-0.0107421875,0.98046875,-2.685546875,1.0986328125,-1.15966796875,101421
0.557,0.05078125,-0.013671875,0.9951171875,-2.5634765625,0.42724609375,-0.8544921875,101421
0.559,0.05078125,-0.00390625,1.009765625,-3.23486328125,0.8544921875,-0.91552734375,101421
0.56,0.0546875,-0.0126953125,1.0126953125,-2.3193359375,1.220703125,-0.79345703125,101421
0.562,0.0537109375,-0.0107421875,0.998046875,-1.77001953125,0.732421875,-1.0986328125,101421
0.564,0.041015625,-0.0078125,0.9951171875,-1.0986328125,1.15966796875,-0.732421875,101421
0.566,0.0517578125,-0.0107421875,1.0029296875,-1.52587890625,0.48828125,-1.15966796875,101421
0.568,0.048828125,-0.01171875,1.0009765625,-1.8310546875,0.79345703125,-1.0986328125,101421
0.569,0.046875,-0.0126953125,1.0,-1.03759765625,0.6103515625,-0.91552734375,101421
0.571,0.044921875,-0.017578125,0.998046875,-1.0986328125,0.42724609375,-0.9765625,101421
0.573,0.0537109375,-0.0068359375,1.0,0.30517578125,0.91552734375,-1.40380859375,101421
0.575,0.0576171875,-0.0166015625,0.974609375,-0.48828125,0.9765625,-1.28173828125,101421
0.577,0.0478515625,-0.0185546875,0.978515625,-0.91552734375,0.48828125,-1.40380859375,101421
0.579,0.0380859375,-0.01171875,0.986328125,-1.5869140625,0.67138671875,-0.91552734375,101421
0.582,0.0419921875,-0.0126953125,1.0,-2.8076171875,0.6103515625,-1.03759765625,101421
0.584,0.0478515625,-0.013671875,0.990234375,-3.35693359375,1.03759765625,-1.40380859375,101421
0.585,0.0498046875,-0.00390625,0.9970703125,-1.953125,0.6103515625,-1.03759765625,101421
0.587,0.0556640625,-0.0068359375,1.0068359375,-1.708984375,0.8544921875,-0.6103515625,101421
0.589,0.0498046875,-0.01171875,1.0029296875,-0.30517578125,0.48828125,-1.708984375,101421
0.591,0.05078125,-0.009765625,1.001953125,-0.91552734375,0.79345703125,-1.15966796875,101421
0.593,0.056640625,-0.0078125,0.9912109375,-0.91552734375,0.79345703125,-0.79345703125,101421
0.594,0.060546875,-0.01171875,0.9912109375,-0.54931640625,0.79345703125,-1.46484375,101421
0.596,0.046875,-0.0078125,0.9921875,-0.732421875,0.9765625,-1.03759765625,101421
0.598,0.0400390625,-0.013671875,0.9814453125,-1.03759765625,0.3662109375,-1.03759765625,101421
0.601,0.0537109375,-0.0087890625,0.98828125,-2.197265625,0.54931640625,-1.708984375,101421
0.603,0.04296875,-0.0107421875,1.0,-2.99072265625,0.30517578125,-1.15966796875,101421
0.605,0.05078125,-0.01171875,1.0029296875,-2.99072265625,1.15966796875,-1.3427734375,101421
0.607,0.05078125,-0.0166015625,1.0205078125,-2.3193359375,0.9765625,-1.89208984375,101421
0.609,0.044921875,-0.0126953125,1.0087890625,-0.244140625,0.6103515625,-1.0986328125,101421
0.612,0.0546875,-0.0166015625,0.9921875,0.42724609375,1.15966796875,-1.28173828125,101421
0.614,0.044921875,-0.01171875,0.9873046875,0.1220703125,0.79345703125,-0.9765625,101421
0.616,0.04296875,-0.009765625,0.9814453125,-1.52587890625,0.79345703125,-0.732421875,101421
0.618,0.0556640625,-0.0126953125,0.98046875,-2.3193359375,0.67138671875,-0.3662109375,101421
0.619,0.046875,-0.0126953125,0.9912109375,-2.9296875,0.67138671875,-1.28173828125,101421
0.622,0.0458984375,-0.0146484375,0.990234375,-1.77001953125,0.30517578125,-1.0986328125,101421
0.624,0.0576171875,-0.015625,0.998046875,-1.8310546875,0.732421875,-1.0986328125,101421
0.626,0.0517578125,-0.0166015625,0.9970703125,-1.03759765625,0.54931640625,-1.03759765625,101421
0.628,0.0478515625,-0.001953125,0.998046875,-1.0986328125,0.54931640625,-1.46484375,101421
0.63,0.048828125,-0.0087890625,0.998046875,-0.3662109375,0.42724609375,-0.67138671875,101421
0.631,0.0400390625,-0.015625,0.978515625,-1.15966796875,0.8544921875,-1.220703125,101421
0.633,0.0419921875,-0.005859375,0.9833984375,-1.8310546875,0.48828125,-0.79345703125,101421
0.635,0.0478515625,-0.00390625,0.9892578125,-1.77001953125,0.54931640625,-1.3427734375,101421
0.637,0.048828125,-0.01171875,1.0009765625,-2.197265625,0.18310546875,-0.8544921875,101421
0.639,0.052734375,-0.017578125,0.9970703125,-2.3193359375,0.54931640625,-1.0986328125,101421
0.641,0.046875,-0.013671875,0.998046875,-2.197265625,0.732421875,-1.0986328125,101421
0.643,0.044921875,-0.01171875,1.0126953125,-1.28173828125,1.15966796875,-1.0986328125,101421
0.644,0.0439453125,-0.0029296875,1.0009765625,-0.732421875,0.91552734375,-1.8310546875,101421
0.646,0.05078125,-0.013671875,0.9921875,-0.8544921875,0.3662109375,-0.54931640625,101421
0.648,0.0498046875,-0.0166015625,0.98828125,-1.28173828125,0.79345703125,-1.40380859375,101421
0.65,0.0390625,-0.0009765625,0.9873046875,-1.89208984375,0.30517578125,-1.46484375,101421
0.653,0.0517578125,-0.0078125,0.9912109375,-1.64794921875,0.67138671875,-1.03759765625,101421
0.655,0.048828125,-0.0185546875,0.99609375,-2.3193359375,1.28173828125,-0.42724609375,101421
0.657,0.0576171875,-0.0126953125,0.9912109375,-1.89208984375,0.244140625,-1.77001953125,101421
0.659,0.0556640625,-0.0146484375,0.998046875,-1.8310546875,0.54931640625,-0.732421875,101421
0.66,0.052734375,-0.0166015625,0.998046875,-1.3427734375,0.1220703125,-1.953125,101421
0.662,0.0478515625,-0.0068359375,0.9990234375,-1.52587890625,0.18310546875,-1.28173828125,101421
0.664,0.0537109375,-0.01171875,1.0048828125,-1.708984375,0.48828125,-1.40380859375,101421
0.666,0.044921875,-0.0185546875,0.9990234375,-0.732421875,0.732421875,-0.8544921875,101421
0.668,0.0458984375,-0.015625,0.9853515625,-0.48828125,1.0986328125,-1.3427734375,101421
0.669,0.0546875,-0.009765625,0.9853515625,-1.40380859375,1.28173828125,-0.9765625,101421
0.672,0.0517578125,-0.013671875,0.98046875,-1.28173828125,0.54931640625,-1.52587890625,101421
0.674,0.0546875,-0.0224609375,0.98828125,-1.46484375,1.40380859375,-0.91552734375,101421
0.676,0.05078125,-0.0166015625,0.982421875,-1.3427734375,0.48828125,-1.64794921875,101421
0.678,0.0390625,-0.01953125,0.984375,-1.52587890625,1.15966796875,-1.3427734375,101421
0.68,0.0390625,-0.0126953125,0.990234375,-2.44140625,1.15966796875,-1.708984375,101421
0.683,0.046875,-0.0126953125,0.9990234375,-2.13623046875,0.91552734375,-1.0986328125,101421
0.685,0.0419921875,-0.01171875,1.001953125,-1.89208984375,1.03759765625,-1.0986328125,101421
0.687,0.037109375,-0.0126953125,0.9921875,-0.54931640625,1.220703125,-1.0986328125,101421
0.689,0.048828125,-0.013671875,0.994140625,-0.8544921875,0.54931640625,-0.79345703125,101421
0.691,0.046875,-0.0126953125,0.98828125,-0.8544921875,0.48828125,-1.0986328125,101421
0.693,0.041015625,-0.0146484375,0.9931640625,-2.38037109375,0.67138671875,-1.15966796875,101421
0.695,0.0478515625,-0.009765625,0.9970703125,-2.50244140625,0.91552734375,-1.220703125,101421
0.697,0.0517578125,0.0,0.9912109375,-2.25830078125,1.46484375,-1.03759765625,101421
0.699,0.0498046875,-0.01171875,1.0068359375,-2.9296875,0.79345703125,-1.220703125,101421
0.701,0.048828125,-0.0146484375,0.99609375,-1.5869140625,0.6103515625,-1.64794921875,101421
0.703,0.0546875,-0.013671875,1.001953125,-0.8544921875,0.244140625,-0.54931640625,101421
0.704,0.046875,-0.0166015625,0.990234375,-0.67138671875,0.42724609375,-1.40380859375,101421
0.706,0.0478515625,-0.009765625,0.9921875,-0.9765625,1.46484375,-0.54931640625,101421
0.708,0.05078125,-0.01171875,0.9814453125,-0.54931640625,0.732421875,-1.03759765625,101421
0.71,0.0478515625,-0.0166015625,0.9833984375,-1.89208984375,0.6103515625,-1.28173828125,101421
0.712,0.0478515625,-0.013671875,0.98828125,-2.3193359375,0.9765625,-1.0986328125,101421
0.714,0.05078125,-0.005859375,0.990234375,-2.5634765625,0.79345703125,-1.0986328125,101421
0.716,0.05078125,-0.0078125,1.0087890625,-2.5634765625,0.6103515625,-1.220703125,101421
0.718,0.046875,-0.01171875,1.0068359375,-1.77001953125,0.48828125,-1.46484375,101421
0.719,0.0576171875,-0.009765625,0.9912109375,-1.46484375,0.79345703125,-0.9765625,101421
0.721,0.0458984375,-0.01171875,0.994140625,-0.9765625,0.54931640625,-0.9765625,101421
0.724,0.05078125,-0.005859375,0.9814453125,-0.54931640625,0.6103515625,-1.64794921875,101421
0.726,0.046875,-0.0048828125,0.99609375,-1.40380859375,0.6103515625,-1.03759765625,101421
0.728,0.04296875,-0.0107421875,0.9970703125,-2.13623046875,0.48828125,-1.15966796875,101421
0.73,0.04296875,-0.0068359375,0.994140625,-2.25830078125,1.03759765625,-0.9765625,101421
0.732,0.0615234375,-0.0029296875,1.0,-1.89208984375,0.732421875,-1.15966796875,101421
0.733,0.0439453125,-0.0166015625,1.0009765625,-1.5869140625,0.42724609375,-1.28173828125,101421
0.735,0.046875,-0.01171875,1.0029296875,-2.50244140625,0.3662109375,-1.220703125,101421
0.737,0.0517578125,-0.0107421875,1.00390625,-1.5869140625,1.03759765625,-1.46484375,101421
0.739,0.046875,-0.0068359375,1.00390625,-1.64794921875,0.42724609375,-0.79345703125,101421
0.741,0.0546875,-0.0009765625,0.9951171875,-1.3427734375,0.3662109375,-1.0986328125,101421
0.744,0.0439453125,-0.013671875,0.9921875,-0.3662109375,0.8544921875,-0.79345703125,101421
0.745,0.05078125,-0.005859375,0.9833984375,-0.732421875,0.8544921875,-0.732421875,101421
0.747,0.04296875,-0.0185546875,0.9775390625,-1.28173828125,0.91552734375,-1.52587890625,101421
0.749,0.0498046875,-0.0146484375,0.9814453125,-1.77001953125,0.79345703125,-0.6103515625,101421
0.751,0.052734375,-0.0078125,0.9912109375,-2.3193359375,0.6103515625,-1.40380859375,101421
0.754,0.0576171875,-0.00390625,1.005859375,-2.44140625,0.244140625,-1.0986328125,101421
0.756,0.041015625,-0.0068359375,1.0,-1.89208984375,0.67138671875,-1.03759765625,101421
0.759,0.0498046875,-0.0068359375,0.99609375,-0.48828125,0.6103515625,-1.15966796875,101421
0.76,0.0400390625,-0.005859375,1.001953125,-1.52587890625,0.1220703125,-1.220703125,101421
0.762,0.056640625,-0.0029296875,0.984375,-1.3427734375,0.79345703125,-0.79345703125,101421
0.765,0.04296875,-0.0029296875,0.994140625,-1.64794921875,0.91552734375,-1.28173828125,101421
0.767,0.041015625,-0.0107421875,0.984375,-1.15966796875,0.42724609375,-1.3427734375,101421
0.769,0.05078125,0.0,0.994140625,-1.0986328125,0.79345703125,-1.220703125,101421
0.77,0.0419921875,-0.01953125,0.986328125,-2.44140625,0.6103515625,-1.3427734375,101421
0.772,0.0498046875,-0.015625,0.9892578125,-2.44140625,0.67138671875,-0.9765625,101421
0.774,0.0400390625,-0.0126953125,1.0107421875,-2.44140625,0.67138671875,-1.28173828125,101421
0.776,0.0537109375,-0.021484375,0.998046875,-2.13623046875,-0.06103515625,-1.15966796875,101421
0.777,0.0419921875,-0.0146484375,0.9990234375,-1.708984375,0.54931640625,-1.28173828125,101421
0.779,0.0400390625,-0.0166015625,0.994140625,-1.8310546875,0.30517578125,-1.0986328125,101421
0.781,0.056640625,-0.0078125,0.994140625,-1.28173828125,0.67138671875,-1.52587890625,101421
0.783,0.052734375,-0.017578125,0.98828125,-0.9765625,0.79345703125,-1.03759765625,101421
0.785,0.046875,-0.017578125,0.990234375,-1.3427734375,0.8544921875,-0.732421875,101421
0.786,0.056640625,-0.005859375,0.98828125,-1.03759765625,0.91552734375,-1.03759765625,101421
0.788,0.0537109375,-0.009765625,0.9892578125,-1.220703125,0.79345703125,-1.77001953125,101421
0.79,0.0439453125,-0.0205078125,0.990234375,-0.91552734375,0.3662109375,-1.03759765625,101421
0.792,0.05078125,-0.0205078125,0.9775390625,-1.64794921875,0.79345703125,-1.28173828125,101421
0.795,0.0498046875,-0.0146484375,0.9775390625,-2.13623046875,1.3427734375,-0.9765625,101421
0.797,0.0478515625,-0.0126953125,0.9833984375,-2.44140625,0.48828125,-1.40380859375,101421
0.799,0.0458984375,-0.005859375,0.998046875,-2.25830078125,0.42724609375,-0.67138671875,101421
0.801,0.0517578125,-0.005859375,1.0048828125,-1.5869140625,0.6103515625,-0.91552734375,101421
0.803,0.046875,-0.0107421875,0.998046875,-1.5869140625,1.15966796875,-1.89208984375,101421
0.804,0.0478515625,-0.00390625,0.9970703125,-1.03759765625,0.18310546875,-0.91552734375,101421
0.806,0.05078125,-0.0068359375,0.9892578125,-1.03759765625,0.732421875,-1.52587890625,101421
0.808,0.052734375,-0.013671875,0.998046875,-0.91552734375,0.48828125,-1.0986328125,101421
0.81,0.048828125,-0.009765625,0.9853515625,-1.15966796875,0.67138671875,-0.8544921875,101421
0.812,0.046875,-0.01953125,0.9990234375,-1.708984375,1.15966796875,-1.15966796875,101421
0.815,0.04296875,-0.0068359375,1.0009765625,-2.01416015625,0.48828125,-1.03759765625,101421
0.817,0.0576171875,-0.0126953125,1.0048828125,-2.0751953125,0.6103515625,-1.220703125,101421
0.819,0.044921875,-0.001953125,1.0,-1.52587890625,0.79345703125,-1.03759765625,101421
0.82,0.05078125,-0.0107421875,0.994140625,-0.732421875,0.67138671875,-1.52587890625,101421
0.822,0.0439453125,-0.013671875,0.9755859375,-0.79345703125,0.67138671875,-0.8544921875,101421
0.826,0.046875,-0.0146484375,0.99609375,-1.46484375,0.9765625,-1.3427734375,101421
0.827,0.0517578125,-0.0068359375,0.9951171875,-1.708984375,0.48828125,-1.46484375,101421
0.829,0.048828125,-0.0224609375,0.9990234375,-1.5869140625,0.18310546875,-1.52587890625,101421
0.831,0.0498046875,-0.017578125,0.994140625,-1.953125,0.91552734375,-1.15966796875,101421
0.833,0.0400390625,-0.0068359375,0.9765625,-1.0986328125,0.3662109375,-0.732421875,101421
0.836,0.046875,-0.001953125,0.9921875,-1.5869140625,0.30517578125,-1.03759765625,101421
0.838,0.0400390625,-0.0087890625,0.9951171875,-2.0751953125,1.0986328125,-1.15966796875,101421
0.84,0.05078125,-0.01171875,1.0009765625,-1.220703125,1.220703125,-1.40380859375,101421
0.842,0.0498046875,0.0,0.9931640625,-1.220703125,1.28173828125,-1.708984375,101421
0.843,0.0556640625,-0.005859375,0.99609375,-0.30517578125,0.42724609375,-1.46484375,101421
0.845,0.0390625,-0.005859375,0.98828125,0.06103515625,0.48828125,-1.40380859375,101421
0.847,0.048828125,-0.013671875,0.986328125,-1.220703125,0.9765625,-1.3427734375,101421
0.849,0.046875,-0.0029296875,0.9775390625,-2.25830078125,0.79345703125,-1.220703125,101421
0.851,0.048828125,-0.0048828125,0.990234375,-3.2958984375,0.8544921875,-1.5869140625,101421
0.852,0.048828125,-0.01171875,0.9970703125,-2.9296875,1.03759765625,-1.03759765625,101421
0.855,0.0576171875,-0.013671875,0.9892578125,-1.77001953125,1.03759765625,-1.52587890625,101421
0.857,0.046875,-0.0048828125,1.0107421875,-0.732421875,1.28173828125,-1.3427734375,101421
0.859,0.044921875,-0.0107421875,0.9912109375,-0.42724609375,0.18310546875,-0.54931640625,101421
0.861,0.044921875,-0.001953125,0.9794921875,-1.3427734375,0.6103515625,-1.15966796875,101421
0.863,0.052734375,-0.0166015625,0.9853515625,-1.52587890625,0.6103515625,-0.48828125,101421
0.865,0.044921875,-0.0146484375,0.9873046875,-2.5634765625,0.9765625,-1.28173828125,101421
0.867,0.0390625,-0.0048828125,1.0,-2.25830078125,0.30517578125,-1.52587890625,101421
0.869,0.05078125,-0.01171875,1.005859375,-2.74658203125,1.03759765625,-1.220703125,101421
0.871,0.046875,-0.00390625,1.0068359375,-1.708984375,0.91552734375,-1.40380859375,101421
0.873,0.0517578125,-0.01171875,1.0009765625,-1.220703125,1.0986328125,-0.8544921875,101421
0.875,0.0595703125,-0.0078125,1.01171875,-0.30517578125,0.54931640625,-1.28173828125,101421
0.876,0.0595703125,-0.015625,0.998046875,0.244140625,0.9765625,-1.03759765625,101421
0.878,0.048828125,-0.0107421875,0.9931640625,0.42724609375,0.6103515625,-1.220703125,101421
0.88,0.0439453125,-0.0205078125,0.9765625,-0.18310546875,0.91552734375,-1.46484375,101421
0.882,0.0439453125,-0.0087890625,0.9921875,-1.77001953125,0.732421875,-1.52587890625,101421
0.884,0.0390625,-0.01171875,0.9765625,-2.685546875,0.3662109375,-1.03759765625,101421
0.886,0.0517578125,-0.0185546875,0.998046875,-3.11279296875,1.15966796875,-0.8544921875,101421
0.888,0.0498046875,-0.0048828125,0.998046875,-1.89208984375,0.30517578125,-1.03759765625,101421
0.89,0.0517578125,-0.0107421875,0.994140625,-1.64794921875,0.9765625,-1.3427734375,101421
0.892,0.046875,-0.00390625,0.9912109375,-1.28173828125,1.220703125,-1.3427734375,101421
0.894,0.05078125,-0.0185546875,0.998046875,-1.220703125,1.0986328125,-0.8544921875,101421
0.897,0.0439453125,-0.009765625,0.986328125,-0.9765625,0.54931640625,-2.01416015625,101421
0.899,0.056640625,-0.0244140625,0.984375,-0.91552734375,0.8544921875,-1.5869140625,101421
0.901,0.04296875,-0.0087890625,0.9853515625,-1.0986328125,0.67138671875,-1.46484375,101421
0.903,0.0537109375,-0.0087890625,0.9814453125,-1.46484375,0.732421875,-1.64794921875,101421
0.905,0.0439453125,-0.013671875,0.9931640625,-1.64794921875,0.30517578125,-1.220703125,101421
0.908,0.04296875,-0.0048828125,0.9853515625,-2.3193359375,0.732421875,-1.15966796875,101421
0.91,0.052734375,-0.017578125,1.0029296875,-1.03759765625,0.9765625,-1.46484375,101421
0.911,0.052734375,-0.0126953125,0.990234375,-1.64794921875,1.15966796875,-1.52587890625,101421
0.913,0.0458984375,-0.005859375,0.990234375,-1.220703125,0.6103515625,-0.6103515625,101421
0.915,0.0478515625,-0.0126953125,1.0,-1.8310546875,0.91552734375,-1.0986328125,101421
0.917,0.052734375,-0.0078125,0.9931640625,-1.5869140625,0.732421875,-1.5869140625,101421
0.919,0.048828125,-0.0146484375,0.990234375,-1.220703125,0.54931640625,-0.9765625,101421
0.92,0.0498046875,-0.013671875,0.9921875,-0.54931640625,0.732421875,-1.03759765625,101421
0.922,0.0478515625,-0.0244140625,0.982421875,-0.91552734375,0.42724609375,-0.79345703125,101421
0.924,0.048828125,-0.01171875,0.9873046875,-1.5869140625,0.06103515625,-1.3427734375,101421
0.927,0.0390625,-0.017578125,0.9873046875,-1.15966796875,0.30517578125,-1.3427734375,101421
0.929,0.05078125,-0.0068359375,0.9921875,-1.953125,0.42724609375,-1.46484375,101421
0.931,0.0478515625,-0.01171875,0.9912109375,-1.64794921875,1.15966796875,-1.46484375,101421
0.933,0.046875,-0.013671875,0.9931640625,-1.89208984375,0.67138671875,-1.40380859375,101421
0.935,0.04296875,-0.0126953125,0.98828125,-1.89208984375,0.732421875,-1.46484375,101421
0.938,0.052734375,-0.021484375,0.9921875,-2.38037109375,0.54931640625,-1.46484375,101421
0.94,0.0517578125,-0.0078125,1.00390625,-2.197265625,0.6103515625,-0.48828125,101421
0.942,0.056640625,-0.00390625,1.01171875,-1.0986328125,0.732421875,-1.0986328125,101421
0.944,0.046875,-0.0166015625,1.0078125,-0.91552734375,0.91552734375,-0.54931640625,101421
0.945,0.0517578125,-0.0087890625,0.990234375,-0.42724609375,0.48828125,-0.67138671875,101421
0.949,0.0439453125,-0.0078125,0.9873046875,-1.220703125,0.6103515625,-1.0986328125,101421
0.951,0.044921875,-0.015625,0.978515625,-1.953125,0.732421875,-1.220703125,101421
0.952,0.046875,-0.0078125,0.9970703125,-2.9296875,0.6103515625,-1.03759765625,101421
0.954,0.0537109375,-0.009765625,1.001953125,-3.23486328125,0.8544921875,-0.9765625,101421
0.956,0.046875,-0.01171875,1.0009765625,-2.01416015625,0.91552734375,-1.15966796875,101421
0.958,0.0517578125,-0.015625,0.994140625,-1.0986328125,0.3662109375,-0.732421875,101421
0.96,0.0390625,-0.0126953125,0.9921875,0.30517578125,0.79345703125,-1.46484375,101421
0.962,0.05078125,-0.0048828125,0.98828125,-0.91552734375,0.48828125,-0.732421875,101421
0.964,0.0439453125,-0.0068359375,0.9931640625,-0.54931640625,0.67138671875,-1.3427734375,101421
0.966,0.0439453125,-0.0166015625,0.9873046875,-0.67138671875,0.732421875,-1.40380859375,101421
0.968,0.0556640625,-0.009765625,0.9814453125,-1.8310546875,0.732421875,-1.8310546875,101421
0.969,0.048828125,-0.01171875,0.984375,-1.8310546875,0.18310546875,-0.732421875,101421
0.971,0.0546875,-0.0087890625,0.9951171875,-2.74658203125,1.40380859375,-2.01416015625,101421
0.973,0.046875,0.0,0.9873046875,-3.23486328125,-0.18310546875,-1.0986328125,101421
0.975,0.0458984375,-0.0107421875,1.01171875,-2.38037109375,0.3662109375,-1.40380859375,101421
0.978,0.0517578125,-0.0126953125,1.0009765625,0.0,0.67138671875,-1.64794921875,101421
0.98,0.044921875,-0.0087890625,0.9921875,0.6103515625,0.1220703125,-0.9765625,101421
0.982,0.037109375,-0.015625,0.982421875,-0.79345703125,1.15966796875,-0.91552734375,101421
0.984,0.0361328125,-0.001953125,0.9853515625,-1.28173828125,0.30517578125,-0.67138671875,101421
0.986,0.044921875,-0.013671875,0.986328125,-2.5634765625,0.9765625,-1.40380859375,101421
0.989,0.048828125,-0.0107421875,1.00390625,-3.23486328125,1.15966796875,-1.3427734375,101421
0.991,0.052734375,-0.0078125,0.998046875,-2.13623046875,0.732421875,-0.67138671875,101421
0.993,0.0439453125,-0.01171875,0.9892578125,-0.79345703125,0.48828125,-1.03759765625,101421
0.995,0.05859375,-0.017578125,0.994140625,-0.30517578125,0.48828125,-1.28173828125,101421
0.997,0.048828125,-0.0107421875,0.982421875,0.0,0.8544921875,-1.220703125,101421
0.998,0.046875,-0.0078125,0.9833984375,0.0,0.6103515625,-1.03759765625,101421
1.0,0.0498046875,-0.0107421875,0.986328125,-0.67138671875,1.03759765625,-1.708984375,101421
1.002,0.0517578125,-0.0107421875,0.9892578125,-2.01416015625,-0.06103515625,-1.03759765625,101421
1.003,0.0517578125,-0.0146484375,0.986328125,-2.86865234375,0.6103515625,-1.220703125,101421
1.005,0.048828125,-0.00390625,0.9814453125,-2.5634765625,0.244140625,-1.8310546875,101421
1.007,0.048828125,-0.0078125,1.001953125,-3.11279296875,0.9765625,-0.79345703125,101421
1.009,0.0556640625,-0.013671875,1.0048828125,-2.13623046875,0.9765625,-1.5869140625,101421
1.011,0.044921875,0.001953125,1.0029296875,-1.28173828125,1.03759765625,-1.0986328125,101421
1.013,0.044921875,-0.01171875,0.9912109375,-0.6103515625,0.67138671875,-1.28173828125,101421
1.015,0.0546875,-0.009765625,0.986328125,-0.3662109375,0.79345703125,-1.52587890625,101421
1.017,0.037109375,-0.0068359375,0.98828125,-0.06103515625,1.0986328125,-0.79345703125,101421
1.019,0.0517578125,-0.0107421875,0.9873046875,-1.46484375,0.54931640625,-0.9765625,101421
1.021,0.0419921875,-0.0068359375,0.9853515625,-2.50244140625,0.79345703125,-1.28173828125,101421
1.023,0.048828125,-0.0107421875,0.9931640625,-2.99072265625,1.15966796875,-0.3662109375,101421
1.025,0.046875,-0.0087890625,1.0009765625,-1.8310546875,0.6103515625,-1.77001953125,101421
1.027,0.052734375,-0.0224609375,1.0029296875,-0.91552734375,0.244140625,-1.15966796875,101421
1.028,0.0498046875,-0.0107421875,0.990234375,-0.91552734375,0.48828125,-1.64794921875,101421
1.03,0.0537109375,-0.009765625,1.0,-0.54931640625,0.30517578125,-1.15966796875,101421
1.032,0.0419921875,-0.0048828125,0.998046875,-1.40380859375,1.15966796875,-0.91552734375,101421
1.034,0.0458984375,-0.0107421875,1.0,-1.708984375,0.48828125,-0.9765625,101421
1.036,0.0458984375,-0.0146484375,0.9921875,-1.708984375,0.8544921875,-1.40380859375,101421
1.038,0.046875,-0.015625,0.9951171875,-1.89208984375,0.9765625,-1.40380859375,101421
1.04,0.04296875,-0.00390625,0.9921875,-1.953125,0.48828125,-1.03759765625,101421
1.042,0.048828125,-0.0078125,0.9794921875,-2.5634765625,1.0986328125,-1.52587890625,101421
1.044,0.0498046875,-0.0166015625,0.9912109375,-1.64794921875,0.30517578125,-0.42724609375,101421
1.045,0.048828125,-0.0029296875,0.9970703125,-1.3427734375,1.03759765625,-1.40380859375,101421
1.047,0.046875,-0.0185546875,0.994140625,-0.9765625,1.3427734375,-1.28173828125,101421
1.05,0.0400390625,0.0,0.9833984375,-0.06103515625,0.732421875,-1.52587890625,101421
1.052,0.041015625,-0.01171875,0.9873046875,-0.9765625,0.732421875,-1.0986328125,101421
1.054,0.0478515625,-0.0087890625,0.990234375,-1.46484375,0.6103515625,-1.5869140625,101421
1.056,0.044921875,-0.01171875,1.0,-1.64794921875,0.67138671875,-0.732421875,101421
1.058,0.060546875,-0.01171875,0.986328125,-2.44140625,0.67138671875,-1.46484375,101421
1.059,0.0478515625,-0.0087890625,1.0,-2.0751953125,0.54931640625,-1.46484375,101421
1.061,0.05078125,-0.0048828125,0.9951171875,-2.50244140625,0.42724609375,-1.28173828125,101421
1.063,0.0419921875,-0.005859375,0.9951171875,-2.38037109375,0.54931640625,-1.40380859375,101421
1.065,0.048828125,-0.009765625,0.9921875,-1.8310546875,0.732421875,-0.9765625,101421
1.067,0.0478515625,-0.013671875,1.00390625,-1.15966796875,1.03759765625,-1.77001953125,101421
1.069,0.0537109375,-0.0087890625,0.9873046875,-0.6103515625,0.1220703125,-1.77001953125,101421
1.071,0.0498046875,-0.013671875,0.98828125,-0.30517578125,0.244140625,-0.732421875,101421
1.073,0.0400390625,-0.0068359375,0.9912109375,-1.28173828125,1.0986328125,-1.3427734375,101421
1.075,0.0361328125,-0.0107421875,0.982421875,-1.52587890625,0.6103515625,-1.220703125,101421
1.077,0.0419921875,-0.0048828125,0.9931640625,-2.38037109375,0.42724609375,-0.91552734375,101421
1.08,0.0478515625,-0.0068359375,1.0087890625,-1.8310546875,0.91552734375,-1.220703125,101421
1.082,0.044921875,-0.0205078125,1.0009765625,-1.8310546875,0.79345703125,-1.708984375,101421
1.084,0.048828125,-0.0087890625,0.9912109375,-1.5869140625,0.42724609375,-0.732421875,101421
1.086,0.046875,-0.0068359375,0.994140625,-1.3427734375,0.8544921875,-1.3427734375,101421
1.088,0.046875,-0.0185546875,0.9921875,-1.64794921875,0.3662109375,-1.3427734375,101421
1.091,0.0556640625,-0.013671875,1.001953125,-0.79345703125,0.8544921875,-1.0986328125,101421
1.093,0.0517578125,-0.015625,0.9892578125,-0.67138671875,0.8544921875,-1.89208984375,101421
1.094,0.046875,-0.01171875,0.9833984375,-0.48828125,0.6103515625,-1.220703125,101421
1.096,0.0439453125,-0.00390625,0.9775390625,-1.3427734375,0.8544921875,-1.52587890625,101421
1.098,0.041015625,-0.0009765625,0.9921875,-2.50244140625,0.8544921875,-1.0986328125,101421
1.1,0.0537109375,-0.005859375,0.98828125,-2.74658203125,0.732421875,-1.953125,101421
1.102,0.052734375,-0.0146484375,0.9892578125,-2.86865234375,0.732421875,-1.708984375,101421
1.103,0.05078125,-0.017578125,1.0107421875,-1.52587890625,0.9765625,-1.64794921875,101421
1.105,0.0478515625,-0.009765625,0.9931640625,-0.18310546875,0.54931640625,-0.79345703125,101421
1.107,0.048828125,-0.0078125,0.9873046875,-0.244140625,1.03759765625,-1.03759765625,101421
1.109,0.04296875,-0.017578125,0.986328125,-0.67138671875,1.3427734375,-0.8544921875,101421
1.111,0.0478515625,-0.0166015625,0.9833984375,-1.64794921875,1.220703125,-0.8544921875,101421
1.113,0.0458984375,-0.009765625,0.9765625,-2.74658203125,0.79345703125,-1.28173828125,101421
1.115,0.060546875,-0.01171875,1.009765625,-2.5634765625,0.79345703125,-1.46484375,101421
1.117,0.0556640625,-0.001953125,0.99609375,-1.953125,0.732421875,-0.79345703125,101421
1.119,0.044921875,-0.009765625,1.0107421875,-0.48828125,0.6103515625,-1.3427734375,101421
1.12,0.0439453125,-0.0146484375,0.98828125,0.244140625,0.3662109375,-1.03759765625,101421
1.122,0.037109375,0.0009765625,0.9931640625,-0.54931640625,0.9765625,-1.03759765625,101421
1.124,0.05078125,-0.00390625,0.984375,-1.0986328125,0.06103515625,-0.8544921875,101421
1.126,0.044921875,-0.0087890625,1.005859375,-1.953125,1.220703125,-0.732421875,101421
1.128,0.0458984375,-0.015625,0.9951171875,-2.197265625,0.54931640625,-0.6103515625,101421
1.13,0.0458984375,0.0029296875,0.9931640625,-2.99072265625,0.67138671875,-0.8544921875,101421
1.132,0.0400390625,-0.0078125,0.998046875,-2.62451171875,0.54931640625,-0.9765625,101421
1.134,0.0419921875,-0.001953125,1.0,-1.953125,1.3427734375,-0.732421875,101421
1.136,0.0546875,-0.005859375,0.998046875,-1.5869140625,1.0986328125,-0.91552734375,101421
1.138,0.044921875,-0.001953125,1.0048828125,-1.3427734375,0.91552734375,-0.9765625,101421
1.141,0.044921875,-0.015625,0.984375,-0.732421875,0.06103515625,-1.03759765625,101421
1.143,0.0439453125,-0.009765625,0.990234375,-0.9765625,1.3427734375,-1.40380859375,101421
1.144,0.044921875,-0.0087890625,0.9775390625,-1.64794921875,0.67138671875,-1.15966796875,101421
1.146,0.04296875,-0.0126953125,0.98828125,-2.44140625,0.54931640625,-1.15966796875,101421
1.148,0.04296875,-0.013671875,0.9951171875,-2.9296875,0.6103515625,-1.0986328125,101421
1.152,0.046875,-0.001953125,0.9921875,-1.77001953125,1.15966796875,-1.52587890625,101421
1.153,0.04296875,-0.00390625,1.001953125,-0.8544921875,0.6103515625,-0.30517578125,101421
1.155,0.0546875,-0.001953125,0.9931640625,-0.67138671875,1.03759765625,-1.5869140625,101421
1.157,0.0439453125,-0.01171875,0.9892578125,-0.67138671875,0.8544921875,-0.8544921875,101421
1.159,0.046875,-0.009765625,0.9921875,-0.18310546875,0.30517578125,-0.9765625,101421
1.162,0.044921875,-0.01171875,0.9765625,-1.708984375,1.15966796875,-1.03759765625,101421
1.164,0.046875,-0.0107421875,0.97265625,-2.9296875,0.9765625,-0.8544921875,101421
1.166,0.052734375,-0.0078125,0.9716796875,-3.2958984375,0.8544921875,-1.3427734375,101421
1.168,0.0595703125,0.0009765625,1.0009765625,-3.5400390625,0.79345703125,-1.15966796875,101421
1.169,0.052734375,-0.0107421875,1.0029296875,-3.11279296875,0.8544921875,-1.15966796875,101421
1.171,0.0517578125,-0.015625,1.0107421875,-1.0986328125,0.1220703125,-0.9765625,101421
1.173,0.0498046875,-0.01171875,1.0078125,0.06103515625,0.91552734375,-1.5869140625,101421
1.175,0.0380859375,-0.00390625,1.001953125,0.1220703125,0.244140625,-0.9765625,101421
1.177,0.041015625,-0.0146484375,0.9873046875,0.6103515625,0.244140625,-0.8544921875,101421
1.178,0.04296875,-0.0087890625,0.98828125,-0.42724609375,0.732421875,-1.52587890625,101421
1.18,0.0498046875,-0.01171875,0.9833984375,-2.99072265625,0.67138671875,-0.91552734375,101421
1.182,0.0546875,-0.0068359375,0.9951171875,-3.23486328125,0.3662109375,-1.28173828125,101421
1.184,0.0419921875,-0.01171875,1.0,-2.99072265625,0.30517578125,-1.03759765625,101421
1.186,0.0458984375,-0.0166015625,1.0087890625,-2.3193359375,0.06103515625,-0.732421875,101421
1.188,0.0556640625,-0.0234375,1.0048828125,-1.3427734375,1.03759765625,-1.28173828125,101421
1.19,0.0546875,-0.0029296875,0.9970703125,-0.42724609375,0.1220703125,-1.40380859375,101421
1.193,0.0546875,-0.0107421875,0.9921875,-0.3662109375,0.67138671875,-1.220703125,101421
1.194,0.0419921875,-0.013671875,0.9921875,-0.54931640625,1.03759765625,-0.8544921875,101421
1.196,0.0537109375,-0.0146484375,0.9873046875,-1.220703125,0.30517578125,-0.9765625,101421
1.198,0.052734375,-0.015625,0.984375,-1.40380859375,0.67138671875,-1.15966796875,101421
1.2,0.0537109375,-0.01171875,0.9892578125,-2.44140625,1.15966796875,-1.15966796875,101421
1.202,0.048828125,-0.017578125,0.98046875,-2.44140625,0.732421875,-1.52587890625,101421
1.203,0.0546875,-0.017578125,0.990234375,-2.50244140625,0.732421875,-1.5869140625,101421
1.205,0.0439453125,-0.0048828125,1.0,-1.28173828125,1.03759765625,-1.5869140625,101421
1.207,0.0537109375,-0.0078125,1.0078125,-0.54931640625,0.6103515625,-1.3427734375,101421
1.209,0.05078125,-0.0126953125,0.9951171875,-0.1220703125,0.8544921875,-1.0986328125,101421
1.212,0.0517578125,-0.0146484375,0.9892578125,-0.67138671875,0.48828125,-0.732421875,101421
1.214,0.0390625,-0.0166015625,0.982421875,-2.13623046875,0.6103515625,-1.46484375,101421
1.216,0.0478515625,-0.009765625,0.9833984375,-2.9296875,0.30517578125,-1.15966796875,101421
1.218,0.044921875,-0.0185546875,1.001953125,-2.3193359375,0.48828125,-1.0986328125,101421
1.219,0.048828125,-0.0146484375,1.00390625,-2.01416015625,0.67138671875,-1.03759765625,101421
1.223,0.05859375,-0.0107421875,1.005859375,-0.91552734375,0.9765625,-1.15966796875,101421
1.225,0.0498046875,-0.009765625,0.99609375,-0.30517578125,0.3662109375,-1.46484375,101421
1.227,0.044921875,-0.017578125,0.994140625,-0.54931640625,0.30517578125,-0.54931640625,101421
1.228,0.046875,-0.0087890625,0.982421875,-0.91552734375,1.220703125,-1.52587890625,101421
1.23,0.0439453125,-0.0126953125,0.9755859375,-1.64794921875,1.28173828125,-1.40380859375,101421
1.233,0.046875,-0.01171875,0.9833984375,-2.8076171875,0.6103515625,-1.46484375,101421
1.235,0.046875,-0.0146484375,0.99609375,-2.50244140625,0.6103515625,-1.15966796875,101421
1.237,0.0537109375,-0.0078125,1.00390625,-1.77001953125,0.91552734375,-1.0986328125,101421
1.239,0.044921875,-0.009765625,0.998046875,-1.46484375,1.46484375,-0.91552734375,101421
1.241,0.0458984375,-0.0107421875,0.9814453125,-0.8544921875,0.6103515625,-1.40380859375,101421
1.242,0.044921875,-0.015625,0.9931640625,-1.0986328125,0.8544921875,-0.79345703125,101421
1.244,0.0400390625,0.0,0.9951171875,-1.52587890625,0.91552734375,-1.15966796875,101421
1.246,0.044921875,-0.005859375,0.9931640625,-1.28173828125,0.732421875,-1.15966796875,101421
1.248,0.0537109375,-0.0078125,0.99609375,-1.46484375,0.732421875,-1.64794921875,101421
1.25,0.0546875,-0.0087890625,1.0087890625,-1.220703125,0.67138671875,-1.64794921875,101421
1.252,0.0634765625,-0.017578125,0.9951171875,-1.3427734375,0.8544921875,-1.46484375,101421
1.253,0.052734375,-0.0029296875,0.9931640625,-0.8544921875,0.30517578125,-1.15966796875,101421
1.255,0.0458984375,-0.0068359375,0.984375,-1.28173828125,0.6103515625,-1.3427734375,101421
1.257,0.0478515625,-0.0078125,0.986328125,-1.220703125,0.8544921875,-0.6103515625,101421
1.259,0.048828125,-0.009765625,0.9912109375,-0.91552734375,1.220703125,-1.3427734375,101421
1.261,0.0478515625,-0.013671875,0.9814453125,-0.42724609375,1.220703125,-1.15966796875,101421
1.264,0.048828125,-0.0068359375,0.990234375,-1.40380859375,1.15966796875,-0.30517578125,101421
1.266,0.046875,-0.015625,0.9833984375,-2.62451171875,0.79345703125,-1.5869140625,101421
1.268,0.05078125,-0.005859375,0.9775390625,-3.2958984375,1.03759765625,-1.3427734375,101421
1.269,0.0498046875,-0.0146484375,1.00390625,-3.60107421875,0.91552734375,-1.3427734375,101421
1.271,0.05078125,-0.0029296875,1.0087890625,-1.8310546875,0.54931640625,-0.42724609375,101421
1.273,0.056640625,-0.015625,1.0048828125,-0.6103515625,0.79345703125,-0.91552734375,101421
1.275,0.0546875,-0.015625,0.9970703125,0.06103515625,1.220703125,-1.03759765625,101421
1.277,0.0517578125,-0.0126953125,0.9892578125,-0.30517578125,0.8544921875,-0.9765625,101421
1.278,0.0546875,-0.005859375,0.978515625,-0.30517578125,0.54931640625,-1.15966796875,101421
1.28,0.0390625,-0.0068359375,0.9912109375,-2.197265625,0.9765625,-0.91552734375,101421
1.283,0.048828125,-0.0087890625,0.99609375,-3.173828125,0.9765625,-0.8544921875,101421
1.285,0.0595703125,-0.0166015625,0.9990234375,-2.5634765625,1.3427734375,-1.5869140625,101421
1.287,0.0498046875,-0.0166015625,1.0146484375,-1.89208984375,0.54931640625,-1.03759765625,101421
1.289,0.0458984375,-0.015625,1.0078125,-1.64794921875,0.54931640625,-1.0986328125,101421
1.291,0.0419921875,-0.015625,1.0009765625,-1.28173828125,0.91552734375,-1.220703125,101421
1.294,0.05078125,-0.0166015625,0.9931640625,-1.40380859375,1.15966796875,-1.28173828125,101421
1.296,0.052734375,-0.0126953125,0.998046875,-1.0986328125,0.54931640625,-1.15966796875,101421
1.298,0.0498046875,-0.0087890625,0.994140625,-1.03759765625,1.0986328125,-0.79345703125,101421
1.3,0.04296875,-0.01171875,0.9873046875,-1.220703125,0.9765625,-1.40380859375,101421
1.302,0.0400390625,-0.0185546875,0.98828125,-1.28173828125,0.732421875,-1.52587890625,101421
1.304,0.0439453125,-0.00390625,0.9990234375,-2.01416015625,0.3662109375,-1.03759765625,101421
1.306,0.0390625,-0.01171875,0.986328125,-1.89208984375,1.3427734375,-0.9765625,101421
1.308,0.0498046875,-0.0078125,1.0,-2.3193359375,0.244140625,-0.79345703125,101421
1.31,0.0439453125,-0.01171875,0.9892578125,-2.25830078125,0.48828125,-1.220703125,101421
1.312,0.046875,-0.009765625,0.9951171875,-1.52587890625,0.8544921875,-1.5869140625,101421
1.313,0.0458984375,-0.009765625,0.9931640625,-1.03759765625,1.03759765625,-1.28173828125,101421
1.315,0.04296875,-0.0029296875,0.9912109375,-0.91552734375,0.54931640625,-1.0986328125,101421
1.317,0.048828125,-0.0146484375,0.9931640625,-0.9765625,0.732421875,-1.5869140625,101421
1.319,0.0478515625,-0.0185546875,0.986328125,-1.64794921875,0.9765625,-0.42724609375,101421
1.321,0.0458984375,-0.015625,0.9931640625,-2.13623046875,0.79345703125,-1.220703125,101421
1.324,0.0556640625,-0.0166015625,0.98828125,-2.8076171875,0.6103515625,-0.91552734375,101421
1.326,0.052734375,-0.005859375,0.9951171875,-2.25830078125,0.79345703125,-1.708984375,101421
1.327,0.052734375,-0.00390625,1.0,-0.8544921875,0.8544921875,-1.220703125,101421
1.329,0.0498046875,-0.009765625,1.0029296875,-0.3662109375,0.9765625,-2.0751953125,101421
1.331,0.056640625,-0.0126953125,0.98828125,0.67138671875,1.0986328125,-1.40380859375,101421
1.335,0.0498046875,-0.01171875,0.9892578125,-1.0986328125,0.54931640625,-1.5869140625,101421
1.336,0.0419921875,-0.01953125,0.9921875,-2.01416015625,0.18310546875,-1.220703125,101421
1.338,0.0546875,-0.00390625,0.990234375,-2.86865234375,0.79345703125,-1.89208984375,101421
1.34,0.048828125,-0.0126953125,0.998046875,-3.90625,0.732421875,-1.708984375,101421
1.342,0.0517578125,-0.009765625,0.9990234375,-3.35693359375,0.9765625,-1.40380859375,101421
1.345,0.0498046875,-0.0107421875,0.99609375,-0.9765625,0.732421875,-1.03759765625,101421
1.347,0.05078125,-0.0107421875,1.001953125,0.18310546875,1.46484375,-0.91552734375,101421
1.349,0.0517578125,-0.017578125,1.0009765625,0.6103515625,0.244140625,-1.0986328125,101421
1.351,0.0546875,-0.01171875,0.994140625,1.52587890625,1.15966796875,-1.52587890625,101421
1.353,0.0419921875,-0.0146484375,0.9794921875,1.15966796875,0.42724609375,-1.46484375,101421
1.354,0.0458984375,-0.01171875,0.9853515625,0.79345703125,0.67138671875,-1.8310546875,101421
1.356,0.041015625,0.0009765625,0.9755859375,-0.67138671875,0.79345703125,-1.28173828125,101421
1.358,0.04296875,-0.0029296875,0.98828125,-4.2724609375,0.732421875,-0.48828125,101421
1.36,0.04296875,-0.0185546875,1.0,-5.06591796875,0.8544921875,-0.9765625,101421
1.361,0.05078125,-0.0126953125,1.0009765625,-4.45556640625,1.0986328125,-1.52587890625,101421
1.363,0.05078125,-0.0107421875,1.0,-2.86865234375,1.15966796875,-1.52587890625,101421
1.365,0.0439453125,-0.0078125,1.001953125,-1.77001953125,0.91552734375,-1.0986328125,101421
1.368,0.052734375,-0.01953125,0.9990234375,1.03759765625,1.03759765625,-0.9765625,101421
1.369,0.0361328125,-0.0078125,0.9892578125,1.40380859375,0.732421875,-0.91552734375,101421
1.371,0.0390625,-0.0068359375,0.9794921875,0.54931640625,0.67138671875,-1.0986328125,101421
1.373,0.0390625,-0.0087890625,0.9765625,-0.79345703125,1.15966796875,-1.0986328125,101421
1.376,0.052734375,-0.0087890625,0.9892578125,-2.62451171875,0.54931640625,-1.0986328125,101421
1.378,0.052734375,-0.00390625,0.9990234375,-3.11279296875,0.42724609375,-1.03759765625,101421
1.38,0.05859375,-0.013671875,0.9970703125,-2.8076171875,0.732421875,-0.9765625,101421
1.382,0.060546875,-0.01953125,1.005859375,-2.01416015625,0.9765625,-0.91552734375,101421
1.384,0.0498046875,-0.0009765625,1.001953125,-1.0986328125,0.8544921875,-0.9765625,101421
1.385,0.05078125,-0.009765625,0.9951171875,-0.67138671875,0.9765625,-1.52587890625,101421
1.387,0.03515625,-0.009765625,0.9814453125,-0.30517578125,0.79345703125,-1.64794921875,101421
1.389,0.046875,-0.0087890625,0.98046875,-0.9765625,0.732421875,-1.03759765625,101421
1.391,0.048828125,-0.0126953125,0.990234375,-2.197265625,0.42724609375,-1.64794921875,101421
1.393,0.0390625,-0.0087890625,0.994140625,-3.41796875,0.79345703125,-2.01416015625,101421
1.395,0.052734375,-0.0087890625,1.0029296875,-2.8076171875,0.91552734375,-0.732421875,101421
1.397,0.056640625,-0.0107421875,1.0029296875,-2.13623046875,0.48828125,-1.52587890625,101421
1.399,0.0576171875,-0.017578125,1.0029296875,-0.79345703125,1.15966796875,-1.3427734375,101421
1.401,0.0517578125,-0.009765625,0.9990234375,-0.18310546875,0.54931640625,-1.5869140625,101421
1.403,0.052734375,-0.0146484375,0.990234375,0.06103515625,1.28173828125,-0.732421875,101421
1.406,0.0537109375,-0.013671875,0.986328125,-0.1220703125,1.0986328125,-1.03759765625,101421
1.408,0.046875,-0.0166015625,0.9833984375,-1.0986328125,0.3662109375,-0.67138671875,101421
1.41,0.0419921875,0.0,0.9794921875,-2.3193359375,0.6103515625,-1.220703125,101421
1.412,0.0419921875,-0.0166015625,0.9697265625,-2.8076171875,0.3662109375,-0.91552734375,101421
1.414,0.0556640625,-0.0126953125,0.990234375,-4.39453125,1.15966796875,-1.708984375,101421
1.417,0.052734375,-0.013671875,1.0,-3.5400390625,0.42724609375,-1.28173828125,101421
1.419,0.048828125,-0.01171875,1.001953125,-1.03759765625,-0.30517578125,-1.15966796875,101421
1.421,0.0517578125,-0.01171875,1.0068359375,-0.67138671875,0.54931640625,-1.46484375,101421
1.423,0.044921875,-0.0078125,0.990234375,0.8544921875,0.8544921875,-0.79345703125,101421
1.425,0.046875,-0.017578125,0.9853515625,0.54931640625,1.28173828125,-0.91552734375,101421
1.426,0.0458984375,-0.015625,0.9833984375,0.0,0.91552734375,-0.67138671875,101421
1.428,0.05078125,-0.0087890625,0.9970703125,-1.220703125,0.48828125,-1.46484375,101421
1.429,0.0458984375,-0.0166015625,0.9853515625,-2.62451171875,1.220703125,-0.91552734375,101421
1.431,0.0576171875,-0.0087890625,0.9873046875,-3.173828125,0.91552734375,-0.9765625,101421
1.433,0.0400390625,-0.0048828125,1.0078125,-3.2958984375,0.9765625,-0.9765625,101421
1.435,0.0498046875,-0.01953125,1.0068359375,-2.50244140625,1.0986328125,-1.03759765625,101421
1.437,0.048828125,-0.013671875,1.0078125,-1.89208984375,1.03759765625,-0.8544921875,101421
1.439,0.0458984375,-0.013671875,0.9912109375,-0.732421875,0.48828125,-1.46484375,101421
1.441,0.056640625,-0.0087890625,0.9912109375,-0.67138671875,0.8544921875,-1.40380859375,101421
1.443,0.04296875,-0.0048828125,0.9921875,-0.732421875,0.42724609375,-1.77001953125,101421
1.445,0.046875,-0.01171875,0.9912109375,-0.67138671875,0.732421875,-1.3427734375,101421
1.447,0.05078125,-0.0107421875,0.9853515625,-1.28173828125,0.9765625,-1.0986328125,101421
1.449,0.048828125,-0.0146484375,0.9794921875,-2.25830078125,0.0,-1.03759765625,101421
1.451,0.046875,-0.005859375,0.98828125,-2.197265625,0.54931640625,-1.15966796875,101421
1.453,0.0478515625,-0.01953125,0.9921875,-2.0751953125,0.91552734375,-1.64794921875,101421
1.455,0.056640625,-0.0009765625,0.99609375,-0.9765625,0.9765625,-1.15966796875,101421
1.456,0.044921875,-0.0244140625,0.9912109375,-0.6103515625,0.3662109375,-1.15966796875,101421
1.458,0.044921875,-0.0146484375,0.9970703125,-0.1220703125,0.79345703125,-1.52587890625,101421
1.46,0.0341796875,-0.0087890625,0.9794921875,-0.30517578125,0.732421875,-0.67138671875,101421
1.462,0.0361328125,-0.009765625,0.9716796875,-1.220703125,0.79345703125,-1.0986328125,101421
1.464,0.0458984375,-0.0068359375,0.9736328125,-2.86865234375,1.220703125,-1.28173828125,101421
1.467,0.052734375,-0.009765625,0.9921875,-4.21142578125,0.54931640625,-0.91552734375,101421
1.469,0.0498046875,-0.0068359375,1.0029296875,-4.39453125,0.244140625,-0.79345703125,101421
1.47,0.0419921875,-0.013671875,1.0107421875,-2.9296875,0.91552734375,-1.0986328125,101421
1.472,0.046875,-0.009765625,1.0,-1.708984375,0.8544921875,-1.15966796875,101421
1.474,0.048828125,-0.0068359375,1.0029296875,-0.06103515625,1.0986328125,-1.220703125,101421
1.478,0.044921875,-0.0078125,1.005859375,0.8544921875,0.244140625,-0.91552734375,101421
1.479,0.05859375,-0.015625,0.9912109375,-0.06103515625,0.9765625,-1.15966796875,101421
1.481,0.048828125,-0.009765625,0.99609375,-1.15966796875,0.42724609375,-0.9765625,101421
1.483,0.0517578125,0.0,0.9921875,-2.44140625,0.18310546875,-1.52587890625,101421
1.485,0.048828125,-0.013671875,0.9853515625,-2.44140625,0.6103515625,-1.40380859375,101421
1.488,0.05859375,-0.0146484375,0.9921875,-2.86865234375,0.8544921875,-1.5869140625,101421
1.49,0.046875,-0.015625,0.9931640625,-2.01416015625,0.91552734375,-1.5869140625,101421
1.492,0.05078125,-0.017578125,1.00390625,-1.3427734375,1.03759765625,-1.3427734375,101421
1.494,0.0576171875,-0.0078125,0.984375,-1.15966796875,0.54931640625,-1.03759765625,101421
1.495,0.0498046875,-0.015625,0.9833984375,0.244140625,0.42724609375,-1.52587890625,101421
1.497,0.0400390625,-0.01171875,0.982421875,-0.1220703125,0.8544921875,-1.28173828125,101421
1.499,0.05078125,0.0,0.98828125,-1.15966796875,0.8544921875,-1.52587890625,101421
1.501,0.05078125,-0.013671875,0.9736328125,-3.23486328125,0.67138671875,-1.5869140625,101421
1.502,0.04296875,-0.015625,0.9814453125,-3.7841796875,0.54931640625,-1.0986328125,101421
1.504,0.0478515625,-0.0087890625,0.98046875,-3.47900390625,0.3662109375,-1.46484375,101421
1.506,0.0546875,-0.0078125,0.9951171875,-2.25830078125,1.220703125,-1.77001953125,101421
1.508,0.05859375,-0.021484375,1.009765625,-1.40380859375,0.79345703125,-1.15966796875,101421
1.51,0.052734375,-0.0146484375,0.9990234375,-0.30517578125,1.15966796875,-0.67138671875,101421
1.512,0.048828125,-0.021484375,0.994140625,0.6103515625,0.732421875,-0.8544921875,101421
1.514,0.044921875,-0.0126953125,0.9892578125,-0.18310546875,0.6103515625,-1.28173828125,101421
1.516,0.04296875,-0.005859375,0.9736328125,-2.0751953125,1.03759765625,-1.220703125,101421
1.519,0.0458984375,-0.01171875,0.984375,-3.47900390625,0.732421875,-1.0986328125,101421
1.52,0.0419921875,-0.005859375,0.9990234375,-3.60107421875,0.3662109375,-1.40380859375,101421
1.522,0.0458984375,-0.01953125,1.0,-2.685546875,0.8544921875,-0.9765625,101421
1.524,0.0517578125,-0.0234375,1.0029296875,-2.197265625,0.18310546875,-1.15966796875,101421
1.526,0.046875,-0.017578125,0.9990234375,-0.79345703125,1.03759765625,-1.15966796875,101421
1.527,0.052734375,-0.01171875,1.0009765625,-0.3662109375,1.03759765625,-0.244140625,101421
1.529,0.0478515625,-0.0078125,1.0048828125,-0.67138671875,0.48828125,-1.64794921875,101421
1.531,0.04296875,-0.0068359375,1.0,-0.48828125,1.220703125,-0.9765625,101421
1.533,0.046875,-0.015625,0.978515625,-2.01416015625,0.54931640625,-1.52587890625,101421
1.535,0.0537109375,-0.0078125,0.9931640625,-2.50244140625,0.54931640625,-0.732421875,101421
1.538,0.0458984375,-0.009765625,0.9921875,-2.13623046875,1.03759765625,-1.46484375,101421
1.54,0.0537109375,-0.0087890625,1.0029296875,-1.89208984375,1.03759765625,-0.91552734375,101421
1.542,0.0517578125,-0.0087890625,1.00390625,-1.03759765625,0.54931640625,-1.5869140625,101421
1.544,0.05078125,-0.013671875,0.9931640625,-0.42724609375,0.732421875,-1.3427734375,101421
1.546,0.0439453125,-0.015625,0.998046875,-0.42724609375,0.8544921875,-0.91552734375,101421
1.547,0.0458984375,-0.001953125,0.978515625,-0.91552734375,1.03759765625,-0.91552734375,101421
1.549,0.0439453125,-0.0078125,0.978515625,-2.25830078125,0.18310546875,-1.5869140625,101421
1.551,0.0498046875,-0.0078125,0.9912109375,-2.86865234375,0.67138671875,-1.15966796875,101421
1.553,0.0478515625,-0.0078125,0.9921875,-2.86865234375,0.91552734375,-1.3427734375,101421
1.555,0.044921875,-0.015625,0.9951171875,-2.01416015625,0.91552734375,-0.8544921875,101421
1.557,0.0556640625,-0.0087890625,0.99609375,-1.52587890625,0.91552734375,-1.708984375,101421
1.558,0.052734375,-0.001953125,1.0009765625,-0.6103515625,0.67138671875,-0.732421875,101421
1.56,0.044921875,-0.015625,0.998046875,0.54931640625,0.8544921875,-1.52587890625,101421
1.562,0.046875,-0.005859375,0.986328125,0.30517578125,0.3662109375,-1.15966796875,101421
1.563,0.05078125,-0.0048828125,0.9775390625,-0.79345703125,0.48828125,-1.220703125,101421
1.565,0.0380859375,-0.00390625,0.9814453125,-1.77001953125,0.79345703125,-1.3427734375,101421
1.567,0.0419921875,-0.01953125,0.982421875,-3.0517578125,0.42724609375,-1.0986328125,101421
1.569,0.044921875,-0.0078125,0.9912109375,-2.9296875,1.220703125,-0.8544921875,101421
1.571,0.04296875,-0.0068359375,1.0068359375,-3.41796875,0.6103515625,-1.46484375,101421
1.573,0.0537109375,-0.005859375,1.0146484375,-2.197265625,0.6103515625,-0.732421875,101421
1.575,0.044921875,-0.0146484375,1.0146484375,-0.67138671875,1.0986328125,-1.708984375,101421
1.577,0.052734375,-0.015625,1.0029296875,-0.48828125,0.8544921875,-0.6103515625,101421
1.58,0.0458984375,-0.00390625,0.9990234375,-1.0986328125,0.67138671875,-0.79345703125,101421
1.582,0.044921875,-0.005859375,0.9853515625,-0.9765625,0.67138671875,-0.9765625,101421
1.584,0.046875,-0.0068359375,0.9951171875,-1.953125,1.28173828125,-1.28173828125,101421
1.586,0.0380859375,-0.017578125,0.9990234375,-2.99072265625,0.8544921875,-1.3427734375,101421
1.587,0.0478515625,-0.0126953125,0.9990234375,-3.2958984375,0.54931640625,-1.46484375,101421
1.588,0.0458984375,-0.01171875,1.0029296875,-2.8076171875,0.79345703125,-0.3662109375,101421
1.59,0.046875,-0.0166015625,1.0107421875,-1.708984375,0.79345703125,-1.15966796875,101421
1.592,0.0458984375,-0.0126953125,1.0068359375,-0.91552734375,0.30517578125,-0.54931640625,101421
1.594,0.0400390625,-0.0087890625,0.99609375,-0.18310546875,0.3662109375,-1.5869140625,101421
1.596,0.0498046875,-0.01171875,0.9833984375,0.18310546875,0.54931640625,-1.03759765625,101421
1.598,0.044921875,-0.009765625,0.98046875,-0.732421875,0.6103515625,-0.732421875,101421
1.6,0.041015625,-0.0166015625,0.984375,-2.0751953125,0.67138671875,-1.64794921875,101421
1.602,0.0419921875,-0.0146484375,0.978515625,-2.86865234375,1.0986328125,-1.40380859375,101421
1.604,0.05078125,-0.0126953125,0.9931640625,-3.662109375,0.48828125,-1.8310546875,101421
1.605,0.0537109375,-0.0107421875,0.9970703125,-3.0517578125,0.79345703125,-1.40380859375,101421
1.607,0.044921875,-0.0087890625,1.0087890625,-2.5634765625,0.79345703125,-0.8544921875,101421
1.61,0.048828125,-0.015625,0.99609375,-0.18310546875,0.8544921875,-0.91552734375,101421
1.612,0.044921875,-0.01171875,1.001953125,-0.1220703125,0.8544921875,-0.91552734375,101421
1.614,0.044921875,-0.0146484375,0.9912109375,-0.30517578125,0.48828125,-1.03759765625,101421
1.616,0.0400390625,-0.0087890625,0.9921875,-1.220703125,0.244140625,-1.8310546875,101421
1.618,0.0419921875,-0.0126953125,0.9892578125,-2.38037109375,0.79345703125,-1.220703125,101421
1.619,0.0546875,-0.0107421875,0.9931640625,-2.44140625,0.79345703125,-1.64794921875,101421
1.621,0.0517578125,-0.0107421875,0.9951171875,-2.86865234375,0.8544921875,-0.6103515625,101421
1.623,0.0546875,-0.01171875,0.9970703125,-2.5634765625,1.15966796875,-0.8544921875,101421
1.625,0.044921875,-0.005859375,1.0,-1.89208984375,1.220703125,-1.0986328125,101421
1.627,0.04296875,-0.01171875,1.0068359375,-1.64794921875,0.79345703125,-0.67138671875,101421
1.629,0.0478515625,-0.015625,1.00390625,-0.67138671875,0.1220703125,-1.40380859375,101421
1.631,0.052734375,-0.01171875,0.9833984375,-0.54931640625,0.48828125,-0.9765625,101421
1.633,0.0537109375,-0.0068359375,0.9931640625,-1.28173828125,0.48828125,-1.28173828125,101421
1.635,0.0400390625,-0.009765625,0.978515625,-1.03759765625,1.220703125,-1.708984375,101421
1.637,0.048828125,-0.0166015625,0.9970703125,-2.01416015625,-0.244140625,-1.03759765625,101421
1.64,0.0419921875,-0.015625,0.9951171875,-2.5634765625,0.79345703125,-1.8310546875,101421
1.642,0.0498046875,-0.009765625,1.0048828125,-1.28173828125,0.48828125,-1.03759765625,101421
1.644,0.0517578125,-0.009765625,1.001953125,-1.03759765625,0.48828125,-1.15966796875,101421
1.646,0.05078125,-0.009765625,0.9970703125,-0.1220703125,0.54931640625,-1.40380859375,101421
1.648,0.05078125,-0.009765625,0.9951171875,-0.3662109375,0.8544921875,-1.52587890625,101421
1.651,0.0439453125,-0.0107421875,0.982421875,-1.708984375,0.1220703125,-0.91552734375,101421
1.653,0.052734375,-0.0126953125,0.984375,-2.01416015625,1.220703125,-1.52587890625,101421
1.655,0.04296875,-0.013671875,0.9892578125,-2.13623046875,0.67138671875,-1.220703125,101421
1.657,0.0439453125,-0.0126953125,0.9970703125,-2.01416015625,0.6103515625,-1.5869140625,101421
1.659,0.0419921875,-0.0068359375,0.9990234375,-1.0986328125,0.54931640625,-1.15966796875,101421
1.66,0.0439453125,-0.0087890625,0.990234375,-1.64794921875,0.0,-1.28173828125,101421
1.662,0.0478515625,-0.001953125,1.0,-0.732421875,0.0,-0.67138671875,101421
1.663,0.052734375,-0.0146484375,0.9951171875,-1.15966796875,0.3662109375,-1.5869140625,101421
1.665,0.052734375,-0.0078125,0.986328125,-0.8544921875,0.732421875,-1.46484375,101421
1.667,0.0390625,-0.015625,1.0009765625,-1.89208984375,1.15966796875,-0.91552734375,101421
1.669,0.0419921875,-0.00390625,0.99609375,-2.50244140625,0.732421875,-0.91552734375,101421
1.671,0.0546875,-0.0107421875,0.9892578125,-2.38037109375,0.3662109375,-0.732421875,101421
1.673,0.0517578125,-0.0029296875,0.9892578125,-2.01416015625,1.46484375,-1.5869140625,101421
1.675,0.05859375,-0.0126953125,0.99609375,-0.9765625,0.91552734375,-1.15966796875,101421
1.677,0.0458984375,-0.0224609375,0.9951171875,-1.40380859375,0.79345703125,-1.46484375,101421
1.678,0.0439453125,-0.009765625,0.9892578125,-0.54931640625,0.67138671875,-0.91552734375,101421
1.681,0.046875,0.0009765625,0.9931640625,-0.48828125,0.91552734375,-1.3427734375,101421
1.683,0.044921875,-0.0068359375,0.99609375,-2.197265625,0.67138671875,-1.46484375,101421
1.685,0.0615234375,-0.0107421875,0.9853515625,-2.86865234375,0.732421875,-1.220703125,101421
1.687,0.0537109375,-0.0068359375,0.9990234375,-2.50244140625,0.79345703125,-1.46484375,101421
1.689,0.0439453125,-0.0166015625,1.001953125,-2.0751953125,1.0986328125,-1.15966796875,101421
1.69,0.0498046875,-0.01171875,1.0087890625,-1.5869140625,1.03759765625,-1.64794921875,101421
1.692,0.05078125,-0.009765625,1.0048828125,-0.91552734375,0.8544921875,-0.732421875,101421
1.694,0.0498046875,-0.00390625,0.998046875,-0.06103515625,0.244140625,-0.67138671875,101421
1.696,0.0537109375,-0.01171875,0.998046875,0.1220703125,0.42724609375,-1.28173828125,101421
1.698,0.041015625,-0.0048828125,0.974609375,0.1220703125,0.54931640625,-0.8544921875,101421
1.701,0.05859375,-0.0107421875,0.9716796875,-1.03759765625,0.54931640625,-1.15966796875,101421
1.703,0.0478515625,-0.0048828125,0.9892578125,-2.5634765625,0.06103515625,-1.03759765625,101421
1.704,0.0419921875,-0.0078125,0.990234375,-3.23486328125,0.42724609375,-1.64794921875,101421
1.706,0.056640625,-0.013671875,0.998046875,-3.173828125,0.67138671875,-1.15966796875,101421
1.708,0.046875,-0.017578125,1.009765625,-2.8076171875,0.79345703125,-1.220703125,101421
1.712,0.046875,-0.00390625,0.998046875,-0.3662109375,0.1220703125,-1.77001953125,101421
1.713,0.0615234375,-0.0146484375,0.9990234375,0.1220703125,1.03759765625,-1.5869140625,101421
1.715,0.048828125,-0.0146484375,0.98828125,1.0986328125,1.40380859375,-1.03759765625,101421
1.717,0.046875,-0.0185546875,0.986328125,0.8544921875,1.28173828125,-0.54931640625,101421
1.719,0.044921875,-0.0166015625,0.9755859375,-0.54931640625,0.9765625,-1.3427734375,101421
1.722,0.052734375,-0.0166015625,0.9921875,-2.74658203125,0.9765625,-1.03759765625,101421
1.724,0.0419921875,-0.00390625,0.9921875,-4.08935546875,1.46484375,-0.732421875,101421
1.726,0.046875,-0.0146484375,1.001953125,-3.0517578125,0.48828125,-0.732421875,101421
1.728,0.0517578125,-0.0107421875,1.0107421875,-2.197265625,0.91552734375,-0.6103515625,101421
1.73,0.0478515625,-0.0068359375,1.013671875,-0.30517578125,0.8544921875,-1.3427734375,101421
1.731,0.0517578125,-0.005859375,0.9970703125,0.54931640625,0.42724609375,-1.46484375,101421
1.733,0.03515625,-0.0126953125,0.990234375,0.48828125,0.48828125,-0.9765625,101421
1.735,0.0400390625,-0.0078125,0.982421875,-0.8544921875,0.1220703125,-0.732421875,101421
1.737,0.052734375,-0.0068359375,0.978515625,-1.52587890625,0.6103515625,-1.3427734375,101421
1.738,0.0439453125,-0.0166015625,0.994140625,-3.0517578125,1.0986328125,-1.220703125,101421
1.74,0.0478515625,-0.0068359375,0.9921875,-2.74658203125,0.67138671875,-1.03759765625,101421
1.742,0.0537109375,-0.0185546875,1.0029296875,-2.50244140625,0.48828125,-0.6103515625,101421
1.744,0.05859375,-0.0126953125,0.9970703125,-1.52587890625,0.8544921875,-0.67138671875,101421
1.746,0.052734375,-0.0078125,0.990234375,-0.54931640625,0.79345703125,-0.9765625,101421
1.748,0.0458984375,-0.009765625,0.9892578125,0.18310546875,0.48828125,-1.03759765625,101421
1.75,0.048828125,-0.01171875,0.9775390625,-0.48828125,1.28173828125,-0.42724609375,101421
1.753,0.044921875,-0.01171875,0.98828125,-1.15966796875,1.03759765625,-1.28173828125,101421
1.755,0.0458984375,-0.0146484375,0.9921875,-1.5869140625,0.91552734375,-1.220703125,101421
1.756,0.0556640625,-0.005859375,0.9912109375,-3.0517578125,0.30517578125,-0.30517578125,101421
1.758,0.0458984375,-0.0126953125,0.9931640625,-3.47900390625,0.79345703125,-1.3427734375,101421
1.76,0.0537109375,-0.009765625,0.9951171875,-3.662109375,0.732421875,-0.732421875,101421
1.762,0.052734375,-0.015625,1.0009765625,-2.8076171875,0.244140625,-1.03759765625,101421
1.763,0.041015625,-0.0146484375,1.0078125,-1.15966796875,1.03759765625,-1.40380859375,101421
1.765,0.0546875,-0.0048828125,0.9970703125,0.48828125,0.9765625,-1.0986328125,101421
1.767,0.05078125,-0.0068359375,0.9921875,1.64794921875,0.6103515625,-0.42724609375,101421
1.769,0.0498046875,-0.0087890625,0.9814453125,0.48828125,0.06103515625,-1.220703125,101421
1.772,0.04296875,-0.0009765625,0.96875,-1.953125,0.42724609375,-0.67138671875,101421
1.774,0.052734375,-0.0048828125,0.966796875,-3.7841796875,0.8544921875,-1.40380859375,101421
1.776,0.0576171875,-0.01171875,0.994140625,-5.0048828125,1.28173828125,-0.732421875,101421
1.778,0.0546875,-0.0078125,1.005859375,-3.41796875,1.15966796875,-1.0986328125,101421
1.78,0.05078125,-0.001953125,1.0126953125,-1.708984375,1.28173828125,-1.220703125,101421
1.783,0.052734375,-0.0029296875,1.001953125,0.06103515625,0.9765625,-1.03759765625,101421
1.785,0.0439453125,-0.0029296875,0.98046875,0.8544921875,0.67138671875,-0.91552734375,101421
1.787,0.044921875,-0.0087890625,0.990234375,0.30517578125,0.732421875,-0.732421875,101421
1.788,0.0498046875,-0.0146484375,0.974609375,-1.64794921875,0.8544921875,-1.220703125,101421
1.79,0.0517578125,0.0009765625,0.986328125,-2.86865234375,0.732421875,-1.40380859375,101421
1.793,0.0517578125,-0.0126953125,0.9931640625,-2.99072265625,0.67138671875,-1.0986328125,101421
1.795,0.0517578125,-0.0068359375,1.001953125,-2.99072265625,0.48828125,-0.9765625,101421
1.797,0.0478515625,-0.01171875,0.9912109375,-2.38037109375,0.6103515625,-1.3427734375,101421
1.799,0.0419921875,-0.0126953125,0.99609375,-1.953125,1.28173828125,-1.28173828125,101421
1.801,0.046875,-0.0205078125,1.0029296875,-1.03759765625,0.8544921875,-1.5869140625,101421
1.802,0.05078125,-0.0078125,0.99609375,-0.3662109375,0.91552734375,-1.220703125,101421
1.804,0.044921875,-0.01171875,0.9970703125,-0.3662109375,0.8544921875,-1.40380859375,101421
1.806,0.046875,-0.001953125,0.984375,-0.79345703125,0.42724609375,-1.03759765625,101421
1.808,0.0546875,-0.0126953125,0.9873046875,-0.54931640625,0.8544921875,-0.732421875,101421
1.81,0.0439453125,-0.0048828125,0.9716796875,-1.03759765625,0.3662109375,-1.3427734375,101421
1.812,0.0498046875,-0.009765625,0.9853515625,-2.685546875,0.732421875,-1.15966796875,101421
1.813,0.0498046875,-0.0126953125,0.9931640625,-2.86865234375,1.220703125,-1.5869140625,101421
1.815,0.056640625,-0.0205078125,0.9990234375,-2.685546875,0.48828125,-1.15966796875,101421
1.817,0.048828125,-0.009765625,0.998046875,-1.52587890625,0.54931640625,-1.03759765625,101421
1.819,0.046875,-0.01171875,0.986328125,-1.03759765625,0.244140625,-0.91552734375,101421
1.821,0.0458984375,-0.0126953125,0.986328125,-0.8544921875,0.42724609375,-1.89208984375,101421
1.824,0.0400390625,-0.0068359375,0.9912109375,-0.91552734375,0.42724609375,-1.953125,101421
1.826,0.0498046875,-0.0166015625,0.99609375,-1.46484375,1.0986328125,-0.91552734375,101421
1.828,0.0537109375,-0.015625,1.0048828125,-1.52587890625,0.06103515625,-0.91552734375,101421
1.829,0.0478515625,-0.021484375,0.9931640625,-0.67138671875,0.9765625,-1.89208984375,101421
1.831,0.041015625,-0.017578125,0.986328125,-1.28173828125,0.67138671875,-1.03759765625,101421
1.833,0.04296875,-0.0263671875,0.9970703125,-2.01416015625,0.79345703125,-1.28173828125,101421
1.835,0.0498046875,-0.009765625,0.9931640625,-2.86865234375,0.67138671875,-0.91552734375,101421
1.837,0.0537109375,-0.017578125,1.00390625,-3.5400390625,0.79345703125,-1.5869140625,101421
1.838,0.0439453125,-0.0146484375,1.00390625,-2.25830078125,1.220703125,-0.732421875,101421
1.84,0.052734375,-0.005859375,1.013671875,-0.67138671875,0.42724609375,-0.79345703125,101421
1.843,0.0537109375,-0.0126953125,1.005859375,0.6103515625,1.0986328125,-1.0986328125,101421
1.845,0.0546875,-0.0107421875,0.994140625,0.30517578125,0.732421875,-1.708984375,101421
1.847,0.05078125,-0.009765625,0.9892578125,0.06103515625,0.48828125,-0.67138671875,101421
1.849,0.046875,-0.0068359375,0.986328125,-1.46484375,1.0986328125,-1.220703125,101421
1.851,0.0517578125,-0.01171875,0.994140625,-2.38037109375,1.0986328125,-1.5869140625,101421
1.854,0.0478515625,-0.0107421875,1.0048828125,-3.41796875,0.91552734375,-1.220703125,101421
1.856,0.052734375,-0.005859375,1.0078125,-2.0751953125,1.28173828125,-1.40380859375,101421
1.858,0.046875,-0.0078125,1.001953125,-2.0751953125,0.6103515625,-0.91552734375,101421
1.86,0.0517578125,-0.0126953125,0.9990234375,-0.8544921875,0.6103515625,-1.708984375,101421
1.862,0.041015625,-0.0107421875,0.9931640625,0.3662109375,0.67138671875,-1.52587890625,101421
1.864,0.0478515625,-0.005859375,0.9892578125,-0.1220703125,0.6103515625,-1.0986328125,101421
1.866,0.0400390625,-0.0166015625,0.982421875,-0.48828125,1.46484375,-1.40380859375,101421
1.869,0.0498046875,-0.0107421875,0.9794921875,-2.38037109375,0.732421875,-1.40380859375,101421
1.871,0.0419921875,-0.009765625,0.984375,-3.173828125,0.91552734375,-1.03759765625,101421
1.872,0.046875,-0.013671875,0.9853515625,-4.150390625,0.18310546875,-1.15966796875,101421
1.874,0.0546875,-0.0146484375,0.9912109375,-3.72314453125,0.67138671875,-1.0986328125,101421
1.876,0.044921875,-0.0107421875,1.0078125,-2.74658203125,0.67138671875,-1.52587890625,101421
1.878,0.0546875,-0.005859375,1.001953125,-1.77001953125,0.9765625,-0.18310546875,101421
1.88,0.05859375,-0.0166015625,1.0087890625,-1.3427734375,1.52587890625,-1.03759765625,101421
1.881,0.048828125,-0.001953125,1.001953125,0.1220703125,0.54931640625,-0.8544921875,101421
1.883,0.0419921875,0.0048828125,0.994140625,0.06103515625,0.79345703125,-1.40380859375,101421
1.885,0.0498046875,-0.0126953125,0.99609375,-0.30517578125,0.6103515625,-0.9765625,101421
1.887,0.0458984375,-0.00390625,0.9833984375,-1.3427734375,0.91552734375,-0.67138671875,101421
1.889,0.048828125,-0.009765625,0.9912109375,-3.90625,0.79345703125,-1.708984375,101421
1.891,0.0517578125,-0.01171875,1.005859375,-4.39453125,1.15966796875,-1.0986328125,101421
1.893,0.048828125,-0.0068359375,1.0107421875,-3.41796875,0.6103515625,-1.52587890625,101421
1.896,0.0478515625,-0.01171875,1.013671875,-1.3427734375,0.42724609375,-1.28173828125,101421
1.897,0.0634765625,-0.0126953125,1.013671875,0.30517578125,0.79345703125,-1.5869140625,101421
1.899,0.0517578125,-0.0029296875,0.990234375,1.46484375,-0.1220703125,-1.15966796875,101421
1.901,0.0400390625,-0.015625,0.9716796875,1.15966796875,0.54931640625,-0.79345703125,101421
1.903,0.037109375,-0.009765625,0.9736328125,-0.3662109375,0.79345703125,-1.64794921875,101421
1.905,0.0458984375,-0.00390625,0.9765625,-1.8310546875,0.54931640625,-0.91552734375,101421
1.906,0.0400390625,-0.0166015625,0.9765625,-3.662109375,0.48828125,-0.9765625,101421
1.908,0.0517578125,-0.0107421875,0.994140625,-4.5166015625,0.06103515625,-0.67138671875,101421
1.91,0.0498046875,-0.0029296875,1.0,-3.662109375,0.8544921875,-1.5869140625,101421
1.912,0.048828125,-0.0234375,1.0009765625,-2.01416015625,0.79345703125,-0.9765625,101421
1.915,0.044921875,-0.01171875,0.994140625,-0.1220703125,0.244140625,-0.732421875,101421
1.917,0.048828125,-0.0029296875,0.998046875,-0.244140625,0.30517578125,-1.28173828125,101421
1.919,0.0498046875,-0.017578125,0.990234375,0.18310546875,1.03759765625,-1.5869140625,101421
1.921,0.0478515625,-0.013671875,0.982421875,-0.67138671875,0.6103515625,-0.3662109375,101421
1.922,0.05078125,-0.021484375,0.990234375,-1.953125,1.0986328125,-0.42724609375,101421
1.926,0.0478515625,-0.0078125,0.9892578125,-2.86865234375,0.6103515625,-1.40380859375,101421
1.928,0.0458984375,-0.0068359375,0.9921875,-3.84521484375,0.79345703125,-1.5869140625,101421
1.929,0.052734375,-0.0078125,1.0126953125,-3.84521484375,1.220703125,-1.46484375,101421
1.931,0.0537109375,-0.005859375,1.0087890625,-2.9296875,0.67138671875,-1.03759765625,101421
1.933,0.0537109375,-0.013671875,1.0068359375,-1.28173828125,0.06103515625,-1.64794921875,101421
1.936,0.046875,-0.0146484375,1.0126953125,0.42724609375,1.46484375,-1.46484375,101421
1.938,0.048828125,-0.0078125,0.98828125,0.79345703125,0.732421875,-0.732421875,101421
1.94,0.046875,-0.0126953125,0.9833984375,0.244140625,0.6103515625,-1.3427734375,101421
1.942,0.05859375,-0.0224609375,0.9833984375,-0.67138671875,0.54931640625,-1.15966796875,101421
1.944,0.0576171875,-0.021484375,0.9873046875,-2.197265625,0.48828125,-1.40380859375,101421
1.945,0.0537109375,-0.01171875,0.9892578125,-3.23486328125,0.79345703125,-1.40380859375,101421
1.947,0.037109375,-0.0107421875,0.99609375,-3.72314453125,0.30517578125,-1.28173828125,101421
1.949,0.0458984375,-0.01171875,1.0048828125,-2.86865234375,1.03759765625,-1.953125,101421
1.951,0.0498046875,-0.009765625,1.0087890625,-2.0751953125,0.91552734375,-1.52587890625,101421
1.953,0.0546875,-0.005859375,1.0107421875,-0.1220703125,0.79345703125,-1.03759765625,101421
1.954,0.0458984375,-0.0068359375,0.994140625,-0.30517578125,0.732421875,-1.8310546875,101421
1.956,0.037109375,-0.0107421875,0.9912109375,0.6103515625,0.732421875,-1.220703125,101421
1.958,0.04296875,-0.0166015625,0.9833984375,-0.3662109375,0.3662109375,-1.40380859375,101421
1.96,0.0498046875,-0.0126953125,0.9716796875,-1.28173828125,-0.06103515625,-1.28173828125,101421
1.962,0.04296875,-0.0078125,0.9775390625,-1.77001953125,0.18310546875,-1.3427734375,101421
1.963,0.048828125,-0.0107421875,0.9931640625,-2.86865234375,0.54931640625,-1.40380859375,101421
1.967,0.0458984375,-0.015625,0.994140625,-2.25830078125,1.03759765625,-1.52587890625,101421
1.969,0.0478515625,-0.0078125,1.0068359375,-1.89208984375,1.52587890625,-0.8544921875,101421
1.971,0.044921875,-0.013671875,0.9970703125,-1.0986328125,1.64794921875,-1.3427734375,101421
1.972,0.0498046875,-0.005859375,0.990234375,-1.28173828125,0.732421875,-1.220703125,101421
1.974,0.046875,-0.0078125,0.9873046875,-0.91552734375,0.0,-0.79345703125,101421
1.976,0.0517578125,-0.005859375,0.994140625,-0.8544921875,1.03759765625,-0.732421875,101421
1.978,0.0361328125,-0.0068359375,0.9892578125,-1.52587890625,0.67138671875,-1.40380859375,101421
1.98,0.05078125,0.001953125,0.990234375,-2.01416015625,0.18310546875,-1.3427734375,101421
1.982,0.048828125,-0.0107421875,0.9892578125,-2.50244140625,0.30517578125,-1.28173828125,101421
1.984,0.0498046875,0.0,1.0,-2.62451171875,0.91552734375,-1.46484375,101421
1.986,0.044921875,-0.0078125,0.99609375,-2.5634765625,0.9765625,-1.77001953125,101421
1.988,0.052734375,-0.0107421875,0.9951171875,-2.38037109375,1.15966796875,-1.15966796875,101421
1.989,0.0537109375,-0.009765625,1.0009765625,-0.8544921875,0.6103515625,-0.8544921875,101421
1.991,0.0537109375,-0.0087890625,0.9970703125,-0.244140625,0.91552734375,-1.64794921875,101421
1.993,0.0419921875,-0.0166015625,0.9921875,-0.30517578125,0.8544921875,-0.9765625,101421
1.995,0.0546875,-0.0087890625,0.9921875,-1.03759765625,1.03759765625,-1.46484375,101421
1.997,0.0517578125,-0.01171875,0.98828125,-1.46484375,0.3662109375,-1.220703125,101421
1.999,0.0517578125,-0.009765625,1.001953125,-2.197265625,0.91552734375,-0.67138671875,101421
2.001,0.0478515625,-0.013671875,1.00390625,-2.5634765625,1.28173828125,-0.91552734375,101421
2.003,0.0439453125,-0.0078125,1.0,-2.13623046875,0.6103515625,-1.0986328125,101421
2.005,0.048828125,-0.0068359375,0.9990234375,-1.953125,0.732421875,-0.9765625,101421
2.006,0.0419921875,-0.0087890625,0.9853515625,-1.64794921875,1.0986328125,-1.46484375,101421
2.008,0.048828125,-0.005859375,0.9921875,-2.01416015625,0.0,-1.46484375,101421
2.01,0.05859375,-0.001953125,0.984375,0.06103515625,1.220703125,-0.9765625,101421
2.012,0.0517578125,-0.01171875,0.986328125,0.1220703125,0.48828125,-0.8544921875,101421
2.013,0.048828125,-0.009765625,0.9853515625,-0.30517578125,0.79345703125,-1.0986328125,101421
2.015,0.0439453125,-0.0087890625,0.9677734375,-1.220703125,1.28173828125,-1.03759765625,101421
2.017,0.0439453125,0.0,0.982421875,-2.3193359375,0.79345703125,-1.40380859375,101421
2.019,0.052734375,-0.001953125,0.9873046875,-3.90625,0.42724609375,-1.220703125,101421
2.021,0.052734375,-0.0166015625,1.0009765625,-3.7841796875,0.79345703125,-0.9765625,101421
2.023,0.0537109375,-0.013671875,1.0009765625,-2.685546875,1.03759765625,-1.40380859375,101421
2.025,0.052734375,-0.0205078125,1.0029296875,-1.03759765625,0.67138671875,-1.3427734375,101421
2.028,0.05859375,-0.0126953125,0.994140625,-0.30517578125,0.79345703125,-1.52587890625,101421
2.029,0.0439453125,-0.0126953125,0.9921875,0.06103515625,0.91552734375,-0.8544921875,101421
2.031,0.0400390625,-0.0205078125,0.982421875,-0.42724609375,0.30517578125,-1.28173828125,101421
2.033,0.0556640625,-0.0146484375,0.986328125,-1.708984375,0.6103515625,-1.3427734375,101421
2.035,0.05078125,-0.0185546875,0.9892578125,-2.13623046875,0.54931640625,-1.46484375,101421
2.037,0.05078125,-0.0126953125,0.9970703125,-2.3193359375,1.220703125,-1.220703125,101421
2.039,0.0419921875,-0.0126953125,1.0068359375,-2.8076171875,0.732421875,-1.3427734375,101421
2.04,0.04296875,0.0029296875,0.994140625,-3.662109375,1.52587890625,-0.67138671875,101421
2.042,0.033203125,-0.0068359375,1.0029296875,-2.50244140625,1.5869140625,-1.3427734375,101421
2.044,0.0419921875,-0.0087890625,1.0107421875,-1.64794921875,0.79345703125,-0.732421875,101421
2.046,0.05078125,-0.0107421875,0.9990234375,0.0,0.8544921875,-0.9765625,101421
2.048,0.048828125,-0.00390625,1.0009765625,0.6103515625,1.15966796875,-1.3427734375,101421
2.05,0.046875,-0.0166015625,0.990234375,0.91552734375,0.48828125,-0.79345703125,101421
2.052,0.046875,-0.021484375,0.9775390625,0.0,0.48828125,-0.79345703125,101421
2.054,0.046875,-0.00390625,0.970703125,-0.91552734375,0.54931640625,-1.03759765625,101421
2.055,0.0556640625,-0.0146484375,0.9775390625,-3.11279296875,0.91552734375,-0.67138671875,101421
2.058,0.0546875,-0.0166015625,0.9970703125,-3.662109375,0.732421875,-2.0751953125,101421
2.06,0.04296875,-0.0087890625,1.0009765625,-2.99072265625,0.67138671875,-1.46484375,101421
2.062,0.046875,-0.009765625,1.0029296875,-2.5634765625,0.48828125,-1.0986328125,101421
2.064,0.0419921875,-0.013671875,0.998046875,-0.42724609375,0.67138671875,-1.220703125,101421
2.066,0.0478515625,-0.01171875,1.0,-0.3662109375,1.0986328125,-1.03759765625,101421
2.067,0.0458984375,-0.0146484375,0.9853515625,0.244140625,0.8544921875,-1.28173828125,101421
2.069,0.0498046875,-0.009765625,0.984375,-0.79345703125,0.732421875,-1.28173828125,101421
2.071,0.05078125,-0.0166015625,0.974609375,-1.220703125,1.03759765625,-1.40380859375,101421
2.073,0.0439453125,-0.013671875,0.9833984375,-1.5869140625,0.79345703125,-1.28173828125,101421
2.075,0.0419921875,-0.0087890625,0.98828125,-2.50244140625,0.9765625,-1.52587890625,101421
2.078,0.0537109375,-0.0078125,0.990234375,-3.173828125,0.244140625,-1.3427734375,101421
2.08,0.046875,-0.0078125,0.9912109375,-3.47900390625,0.30517578125,-1.3427734375,101421
2.081,0.04296875,-0.01171875,1.0029296875,-1.708984375,0.732421875,-1.40380859375,101421
2.082,0.048828125,-0.0087890625,1.0146484375,-0.8544921875,0.79345703125,-1.8310546875,101421
2.084,0.05078125,-0.005859375,1.00390625,-0.3662109375,0.9765625,-0.9765625,101421
2.086,0.05078125,-0.0029296875,0.990234375,0.1220703125,1.28173828125,-1.03759765625,101421
2.089,0.0400390625,-0.0126953125,0.99609375,-1.3427734375,0.91552734375,-1.220703125,101421
2.091,0.0439453125,-0.0146484375,0.9892578125,-2.13623046875,0.67138671875,-0.79345703125,101421
2.093,0.052734375,-0.0107421875,1.0048828125,-2.99072265625,0.91552734375,-2.0751953125,101421
2.095,0.048828125,-0.013671875,1.00390625,-2.50244140625,0.67138671875,-0.9765625,101421
2.096,0.052734375,-0.0009765625,1.0048828125,-1.953125,0.732421875,-1.15966796875,101421
2.097,0.0537109375,-0.0078125,1.005859375,-1.64794921875,0.79345703125,-0.67138671875,101421
2.099,0.048828125,-0.0126953125,0.998046875,-0.9765625,0.54931640625,-1.46484375,101421
2.101,0.044921875,-0.0087890625,1.0048828125,-0.8544921875,0.67138671875,-1.64794921875,101421
2.103,0.041015625,-0.005859375,0.994140625,-0.8544921875,0.9765625,-0.9765625,101421
2.105,0.0419921875,-0.0087890625,0.9853515625,-0.244140625,0.67138671875,-1.708984375,101421
2.107,0.0439453125,-0.0048828125,0.9892578125,-0.42724609375,0.18310546875,-1.46484375,101421
2.109,0.048828125,-0.0087890625,0.978515625,-1.5869140625,1.15966796875,-1.220703125,101421
2.111,0.0419921875,-0.0068359375,0.9755859375,-2.685546875,0.54931640625,-0.9765625,101421
2.113,0.0390625,-0.0126953125,1.0,-3.35693359375,1.0986328125,-0.91552734375,101421
2.114,0.0546875,-0.0078125,1.00390625,-2.38037109375,1.03759765625,-1.3427734375,101421
2.116,0.0517578125,-0.0146484375,1.0068359375,-2.8076171875,0.3662109375,-1.15966796875,101421
2.12,0.0576171875,-0.0126953125,0.9990234375,-0.1220703125,0.18310546875,-1.46484375,101421
2.121,0.0400390625,-0.005859375,0.9833984375,-0.732421875,0.54931640625,-1.953125,101421
2.123,0.0458984375,-0.00390625,0.9775390625,-1.40380859375,1.46484375,-1.52587890625,101421
2.125,0.0419921875,-0.0185546875,0.98046875,-1.46484375,0.67138671875,-0.67138671875,101421
2.127,0.048828125,-0.0068359375,0.998046875,-2.01416015625,1.220703125,-1.3427734375,101421
2.128,0.0458984375,-0.0146484375,0.994140625,-1.64794921875,1.40380859375,-1.0986328125,101421
2.13,0.048828125,-0.0048828125,1.013671875,-1.0986328125,0.30517578125,-1.0986328125,101421
2.132,0.0546875,-0.0087890625,0.9970703125,-0.8544921875,0.3662109375,-1.5869140625,101421
2.134,0.0478515625,-0.0126953125,0.986328125,-1.40380859375,0.732421875,-1.3427734375,101421
2.136,0.052734375,-0.01171875,0.9912109375,-1.89208984375,0.48828125,-1.15966796875,101421
2.138,0.0400390625,-0.01953125,0.994140625,-2.50244140625,0.42724609375,-1.3427734375,101421
2.139,0.0498046875,-0.01171875,1.0009765625,-2.5634765625,0.79345703125,-1.03759765625,101421
2.141,0.0498046875,-0.0107421875,1.009765625,-2.3193359375,0.67138671875,-0.732421875,101421
2.143,0.0537109375,-0.0107421875,0.99609375,-1.15966796875,0.8544921875,-1.3427734375,101421
2.145,0.05078125,-0.0107421875,1.0048828125,0.1220703125,0.48828125,-1.220703125,101421
2.147,0.0556640625,-0.0166015625,0.978515625,0.0,1.0986328125,-0.8544921875,101421
2.15,0.052734375,-0.015625,0.984375,-0.8544921875,1.0986328125,-1.0986328125,101421
2.152,0.0498046875,-0.0078125,0.9814453125,-2.01416015625,0.18310546875,-1.5869140625,101421
2.154,0.0439453125,-0.0107421875,0.9853515625,-2.38037109375,0.42724609375,-1.40380859375,101421
2.155,0.0419921875,-0.0166015625,0.9970703125,-2.9296875,0.732421875,-1.220703125,101421
2.157,0.041015625,-0.0087890625,0.9970703125,-1.953125,0.3662109375,-1.220703125,101421
2.159,0.05078125,-0.0146484375,0.9892578125,-1.953125,0.54931640625,-1.40380859375,101421
2.161,0.046875,-0.0107421875,0.9912109375,-1.28173828125,0.48828125,-0.54931640625,101421
2.163,0.0458984375,-0.0048828125,0.994140625,-0.732421875,0.6103515625,-1.40380859375,101421
2.164,0.0517578125,-0.009765625,0.9951171875,-0.30517578125,0.3662109375,-0.79345703125,101421
2.166,0.048828125,-0.013671875,0.9833984375,-0.67138671875,0.91552734375,-1.64794921875,101421
2.169,0.0439453125,-0.0146484375,0.98046875,-1.40380859375,0.732421875,-1.0986328125,101421
2.171,0.0498046875,-0.0146484375,0.9853515625,-2.01416015625,0.91552734375,-1.03759765625,101421
2.173,0.0576171875,-0.013671875,0.998046875,-2.38037109375,0.67138671875,-1.220703125,101421
2.175,0.0478515625,-0.01171875,1.001953125,-3.2958984375,1.03759765625,-1.77001953125,101421
2.177,0.0537109375,-0.00390625,1.0009765625,-2.62451171875,0.67138671875,-1.28173828125,101421
2.18,0.0458984375,-0.0068359375,0.990234375,-0.48828125,0.67138671875,-1.28173828125,101421
2.182,0.046875,-0.013671875,0.994140625,-0.30517578125,0.48828125,-1.3427734375,101421
2.184,0.048828125,-0.0107421875,0.974609375,-0.6103515625,0.18310546875,-0.732421875,101421
2.186,0.0537109375,-0.00390625,1.0029296875,-0.9765625,0.732421875,-1.46484375,101421
2.188,0.0546875,-0.009765625,0.9912109375,-2.9296875,0.732421875,-0.48828125,101421
2.19,0.041015625,-0.015625,0.986328125,-3.35693359375,0.0,-1.52587890625,101421
2.192,0.0537109375,-0.013671875,0.998046875,-2.9296875,0.91552734375,-0.79345703125,101421
2.194,0.0556640625,-0.0146484375,1.009765625,-1.708984375,1.28173828125,-1.220703125,101421
2.196,0.041015625,-0.0068359375,1.0,-0.9765625,0.8544921875,-1.28173828125,101421
2.198,0.048828125,-0.013671875,1.0009765625,-0.48828125,1.03759765625,-1.220703125,101421
2.199,0.0556640625,-0.0126953125,0.998046875,0.1220703125,0.8544921875,-1.15966796875,101421
2.201,0.0556640625,-0.0087890625,0.99609375,0.6103515625,0.67138671875,-1.220703125,101421
2.203,0.0419921875,-0.009765625,0.978515625,-0.67138671875,0.6103515625,-1.15966796875,101421
2.205,0.0458984375,0.005859375,0.9853515625,-1.28173828125,0.48828125,-0.8544921875,101421
2.207,0.0478515625,-0.01171875,0.986328125,-2.50244140625,0.79345703125,-1.8310546875,101421
2.209,0.046875,-0.0126953125,0.9833984375,-2.9296875,0.8544921875,-1.28173828125,101421
2.211,0.0439453125,-0.0107421875,0.984375,-3.72314453125,-0.244140625,-0.9765625,101421
2.213,0.0458984375,-0.0107421875,0.9892578125,-2.3193359375,0.42724609375,-1.52587890625,101421
2.214,0.0546875,-0.005859375,1.0087890625,-1.3427734375,0.244140625,-1.28173828125,101421
2.216,0.0556640625,-0.0087890625,0.9970703125,0.18310546875,0.42724609375,-0.9765625,101421
2.218,0.0390625,-0.0146484375,0.9912109375,0.54931640625,0.67138671875,-1.8310546875,101421
2.221,0.046875,-0.009765625,0.982421875,-0.67138671875,0.0,-0.732421875,101421
2.223,0.0439453125,0.0048828125,0.9755859375,-1.220703125,0.732421875,-1.03759765625,101421
2.225,0.0498046875,-0.0107421875,0.9755859375,-2.9296875,0.48828125,-1.5869140625,101421
2.227,0.0478515625,-0.0146484375,0.9990234375,-3.84521484375,1.15966796875,-0.67138671875,101421
2.229,0.0595703125,-0.00390625,1.0068359375,-3.23486328125,0.79345703125,-1.220703125,101421
2.23,0.056640625,-0.00390625,1.0029296875,-2.3193359375,0.3662109375,-1.40380859375,101421
2.232,0.0478515625,-0.0107421875,1.0078125,-1.3427734375,0.732421875,-0.79345703125,101421
2.234,0.04296875,-0.01171875,1.001953125,0.06103515625,0.732421875,-1.3427734375,101421
2.236,0.0537109375,-0.0068359375,0.9853515625,-0.67138671875,0.732421875,-0.91552734375,101421
2.238,0.04296875,-0.01171875,0.9892578125,-1.3427734375,1.03759765625,-1.03759765625,101421
2.24,0.0537109375,-0.01171875,0.9892578125,-2.3193359375,0.30517578125,-0.91552734375,101421
2.242,0.0517578125,-0.0126953125,1.0068359375,-2.74658203125,0.67138671875,-1.46484375,101421
2.244,0.0556640625,-0.0126953125,1.0029296875,-2.25830078125,1.5869140625,-1.15966796875,101421
2.246,0.0556640625,-0.00390625,1.0078125,-1.220703125,0.48828125,-1.40380859375,101421
2.248,0.0439453125,-0.013671875,0.994140625,-0.48828125,0.48828125,-0.9765625,101421
2.25,0.05078125,-0.0126953125,0.990234375,-1.15966796875,0.79345703125,-0.8544921875,101421
2.252,0.0400390625,-0.013671875,0.9892578125,-0.9765625,0.8544921875,-0.91552734375,101421
2.254,0.04296875,-0.017578125,0.9970703125,-1.40380859375,0.48828125,-1.220703125,101421
2.255,0.044921875,-0.0146484375,0.994140625,-1.220703125,0.732421875,-1.3427734375,101421
2.257,0.046875,-0.0087890625,0.9873046875,-1.15966796875,0.67138671875,-0.8544921875,101421
2.259,0.0517578125,-0.0205078125,0.986328125,-1.15966796875,0.54931640625,-1.28173828125,101421
2.26,0.0546875,-0.0087890625,0.9873046875,-2.01416015625,1.0986328125,-0.79345703125,101421
2.262,0.0478515625,-0.015625,0.982421875,-2.25830078125,0.9765625,-1.220703125,101421
2.264,0.046875,-0.0087890625,0.9921875,-1.8310546875,0.8544921875,-1.64794921875,101421
2.266,0.0400390625,-0.0068359375,0.9892578125,-1.89208984375,1.03759765625,-1.52587890625,101421
2.268,0.0458984375,-0.015625,0.9951171875,-1.953125,0.42724609375,-1.0986328125,101421
2.27,0.052734375,-0.0087890625,0.99609375,-1.52587890625,0.42724609375,-1.15966796875,101421
2.272,0.044921875,-0.0224609375,0.9970703125,-1.28173828125,1.220703125,-1.220703125,101421
2.273,0.0478515625,-0.0107421875,0.9873046875,-1.64794921875,0.67138671875,-1.28173828125,101421
2.275,0.046875,-0.0107421875,0.990234375,-0.732421875,0.48828125,-0.48828125,101421
2.277,0.046875,-0.0126953125,0.984375,-1.8310546875,1.03759765625,-1.220703125,101421
2.279,0.0419921875,-0.0126953125,0.98828125,-1.8310546875,1.03759765625,-1.8310546875,101421
2.282,0.0439453125,-0.005859375,0.99609375,-2.197265625,0.9765625,-0.30517578125,101421
2.284,0.048828125,-0.013671875,0.99609375,-1.708984375,0.3662109375,-0.732421875,101421
2.286,0.04296875,-0.01953125,0.9951171875,-1.77001953125,0.91552734375,-1.8310546875,101421
2.288,0.0498046875,-0.017578125,1.0,-1.77001953125,0.8544921875,-0.9765625,101421
2.29,0.0478515625,-0.0107421875,0.986328125,-1.28173828125,0.91552734375,-1.03759765625,101421
2.291,0.0400390625,-0.0107421875,0.9921875,-2.38037109375,0.244140625,-1.28173828125,101421
2.293,0.0556640625,-0.0087890625,0.9912109375,-1.77001953125,0.8544921875,-0.91552734375,101421
2.295,0.046875,-0.0146484375,0.9951171875,-1.40380859375,0.42724609375,-1.03759765625,101421
2.296,0.0498046875,-0.0078125,1.01171875,-1.0986328125,-0.06103515625,-0.79345703125,101421
2.298,0.0439453125,-0.01171875,1.0029296875,-1.03759765625,0.54931640625,-1.3427734375,101421
2.3,0.04296875,-0.0048828125,0.9931640625,-1.15966796875,0.67138671875,-1.0986328125,101421
2.302,0.04296875,-0.017578125,0.98828125,-0.8544921875,0.79345703125,-1.03759765625,101421
2.304,0.0546875,-0.01171875,0.9921875,-1.8310546875,0.0,-1.0986328125,101421
2.306,0.046875,-0.0078125,0.9892578125,-2.44140625,0.79345703125,-0.732421875,101421
2.308,0.05078125,-0.0126953125,0.9912109375,-2.25830078125,1.03759765625,-1.220703125,101421
2.31,0.0498046875,-0.00390625,0.994140625,-1.28173828125,0.79345703125,-0.79345703125,101421
2.313,0.0478515625,-0.0068359375,0.994140625,-0.54931640625,1.0986328125,-0.9765625,101421
2.314,0.052734375,-0.0068359375,0.99609375,0.30517578125,1.03759765625,-0.54931640625,101421
2.316,0.052734375,-0.0078125,0.986328125,-0.3662109375,0.8544921875,-1.03759765625,101421
2.318,0.04296875,-0.0087890625,0.9853515625,-1.40380859375,0.18310546875,-1.3427734375,101421
2.32,0.04296875,-0.015625,0.98046875,-2.13623046875,1.03759765625,-1.40380859375,101421
2.322,0.0458984375,-0.0078125,0.9892578125,-2.685546875,0.48828125,-0.9765625,101421
2.324,0.0439453125,-0.0078125,0.9931640625,-2.86865234375,1.03759765625,-1.28173828125,101421
2.326,0.0419921875,-0.0166015625,0.9931640625,-2.25830078125,0.9765625,-1.220703125,101421
2.328,0.0419921875,-0.0107421875,0.99609375,-2.50244140625,0.3662109375,-0.8544921875,101421
2.33,0.0498046875,-0.009765625,0.9931640625,-1.77001953125,0.0,-0.9765625,101421
2.331,0.052734375,-0.009765625,0.9990234375,-1.708984375,0.732421875,-1.220703125,101421
2.333,0.05078125,-0.013671875,1.001953125,-1.0986328125,0.732421875,-0.8544921875,101421
2.335,0.0400390625,-0.001953125,0.9990234375,-0.732421875,0.91552734375,-1.46484375,101421
2.337,0.048828125,-0.00390625,0.9912109375,-1.3427734375,0.91552734375,-1.46484375,101421
2.339,0.04296875,-0.009765625,0.990234375,-1.89208984375,0.8544921875,-1.220703125,101421
2.341,0.05078125,-0.0126953125,0.9794921875,-1.953125,0.6103515625,-1.46484375,101421
2.343,0.052734375,-0.0107421875,1.0009765625,-2.13623046875,0.732421875,-1.15966796875,101421
2.345,0.0458984375,-0.0107421875,0.990234375,-1.40380859375,0.6103515625,-1.3427734375,101421
2.347,0.046875,-0.00390625,0.99609375,-1.28173828125,0.3662109375,-1.3427734375,101421
2.349,0.0498046875,-0.0185546875,1.0029296875,-0.8544921875,0.732421875,-1.03759765625,101421
2.351,0.0390625,-0.013671875,0.9892578125,-0.79345703125,1.40380859375,-1.5869140625,101421
2.352,0.037109375,-0.0126953125,0.9833984375,-2.3193359375,0.91552734375,-0.6103515625,101421
2.354,0.0439453125,-0.0078125,0.998046875,-2.0751953125,0.48828125,-0.30517578125,101421
2.356,0.0498046875,-0.0078125,0.98828125,-2.3193359375,0.9765625,-1.46484375,101421
2.358,0.0498046875,-0.0068359375,0.98828125,-2.13623046875,1.03759765625,-1.15966796875,101421
2.36,0.0517578125,-0.013671875,0.9931640625,-2.685546875,0.8544921875,-1.03759765625,101421
2.363,0.0439453125,-0.0078125,0.98828125,-0.9765625,0.48828125,-1.52587890625,101421
2.364,0.052734375,-0.0126953125,0.994140625,-0.48828125,0.79345703125,-1.28173828125,101421
2.366,0.0498046875,-0.0087890625,0.9970703125,-0.8544921875,0.3662109375,-1.15966796875,101421
2.369,0.0498046875,-0.0029296875,0.984375,-1.15966796875,0.732421875,-1.3427734375,101421
2.371,0.044921875,-0.0009765625,0.9833984375,-1.8310546875,1.03759765625,-1.15966796875,101421
2.374,0.0439453125,-0.009765625,0.978515625,-2.99072265625,1.220703125,-1.0986328125,101421
2.376,0.056640625,-0.0185546875,0.9921875,-3.173828125,1.0986328125,-0.91552734375,101421
2.378,0.044921875,-0.0146484375,0.9990234375,-2.5634765625,1.03759765625,-2.0751953125,101421
2.38,0.041015625,-0.0166015625,1.0078125,-2.197265625,0.9765625,-2.44140625,101421
2.381,0.048828125,-0.0107421875,1.0,-0.9765625,1.3427734375,-1.89208984375,101421
2.384,0.05859375,-0.015625,0.9912109375,0.18310546875,0.244140625,-1.40380859375,101421
2.386,0.0478515625,-0.0146484375,0.9951171875,0.06103515625,0.30517578125,-0.3662109375,101421
2.388,0.052734375,-0.01171875,0.974609375,-0.67138671875,0.06103515625,-1.3427734375,101421
2.39,0.0458984375,-0.01953125,0.9853515625,-2.0751953125,0.18310546875,-1.46484375,101421
2.392,0.0458984375,-0.0087890625,0.98046875,-3.41796875,0.732421875,-1.3427734375,101421
2.393,0.046875,-0.017578125,1.0,-3.5400390625,0.42724609375,-1.220703125,101421
2.395,0.0625,-0.013671875,1.0048828125,-3.173828125,0.244140625,-0.42724609375,101421
2.397,0.0498046875,-0.00390625,1.0068359375,-2.8076171875,0.54931640625,-1.40380859375,101421
2.399,0.0439453125,-0.013671875,1.0078125,-1.89208984375,0.6103515625,-1.5869140625,101421
2.401,0.0458984375,-0.0087890625,0.9970703125,-1.5869140625,0.06103515625,-0.79345703125,101421
2.404,0.0498046875,-0.0107421875,0.9912109375,0.0,1.0986328125,-1.15966796875,101421
2.406,0.04296875,-0.017578125,0.9853515625,0.18310546875,0.67138671875,-0.91552734375,101421
2.407,0.0517578125,-0.009765625,0.9833984375,-0.6103515625,0.54931640625,-1.220703125,101421
2.409,0.044921875,-0.0078125,0.9921875,-1.28173828125,0.3662109375,-1.220703125,101421
2.411,0.048828125,-0.005859375,0.986328125,-2.38037109375,0.42724609375,-1.220703125,101421
2.414,0.04296875,-0.0166015625,0.994140625,-3.23486328125,1.15966796875,-0.48828125,101421
2.416,0.0458984375,-0.013671875,0.9912109375,-2.197265625,0.54931640625,-0.8544921875,101421
2.418,0.0419921875,-0.0078125,0.9892578125,-1.03759765625,1.40380859375,-1.0986328125,101421
2.42,0.0419921875,-0.015625,0.9814453125,-1.64794921875,0.54931640625,-1.28173828125,101421
2.422,0.037109375,-0.0068359375,0.990234375,-1.40380859375,0.91552734375,-0.79345703125,101421
2.425,0.05078125,-0.001953125,0.986328125,-1.3427734375,0.48828125,-1.40380859375,101421
2.427,0.05859375,-0.01171875,0.986328125,-0.79345703125,0.79345703125,-1.220703125,101421
2.429,0.052734375,-0.01171875,0.9794921875,-0.732421875,0.79345703125,-0.54931640625,101421
2.43,0.0478515625,-0.0078125,0.9794921875,-1.40380859375,0.8544921875,-1.15966796875,101421
2.432,0.0400390625,-0.0126953125,0.990234375,-1.64794921875,0.1220703125,-1.3427734375,101421
2.434,0.0458984375,-0.0166015625,0.986328125,-2.0751953125,0.732421875,-1.5869140625,101421
2.436,0.0517578125,-0.0146484375,0.994140625,-2.13623046875,0.9765625,-1.77001953125,101421
2.438,0.05078125,-0.0048828125,1.0087890625,-2.3193359375,0.1220703125,-1.5869140625,101421
2.439,0.0517578125,-0.005859375,0.9873046875,-1.89208984375,-0.1220703125,-1.5869140625,101421
2.441,0.048828125,-0.001953125,0.9970703125,-2.13623046875,0.9765625,-1.220703125,101421
2.443,0.04296875,-0.00390625,0.9921875,-2.3193359375,0.0,-1.03759765625,101421
2.445,0.0498046875,-0.01171875,0.99609375,-1.40380859375,0.732421875,-0.8544921875,101421
2.447,0.044921875,-0.0029296875,1.0078125,-1.708984375,1.15966796875,-1.220703125,101421
2.449,0.048828125,-0.00390625,1.0107421875,-0.9765625,0.732421875,-1.3427734375,101421
2.451,0.0439453125,-0.0087890625,1.0009765625,-0.18310546875,0.18310546875,-0.9765625,101421
2.453,0.048828125,-0.009765625,0.994140625,-0.06103515625,0.9765625,-1.40380859375,101421
2.455,0.041015625,-0.0087890625,0.9892578125,-0.67138671875,0.9765625,-1.15966796875,101421
2.456,0.0537109375,-0.009765625,0.98828125,-1.3427734375,1.0986328125,-1.0986328125,101421
2.458,0.0546875,-0.01171875,0.9853515625,-2.50244140625,0.732421875,-1.0986328125,101421
2.46,0.0517578125,-0.009765625,0.9853515625,-3.23486328125,0.30517578125,-0.9765625,101421
2.462,0.046875,-0.021484375,0.984375,-3.35693359375,0.732421875,-0.732421875,101421
2.464,0.046875,-0.0107421875,0.994140625,-3.173828125,0.0,-1.40380859375,101421
2.466,0.0400390625,-0.0185546875,1.0166015625,-1.46484375,0.79345703125,-1.28173828125,101421
2.468,0.0517578125,-0.0048828125,1.0068359375,-0.79345703125,0.244140625,-0.79345703125,101421
2.47,0.0498046875,-0.005859375,0.9931640625,-0.1220703125,0.6103515625,-1.40380859375,101421
2.472,0.05078125,-0.0078125,0.9794921875,0.48828125,0.48828125,-1.40380859375,101421
2.475,0.0390625,-0.013671875,0.978515625,-0.30517578125,1.03759765625,-1.77001953125,101421
2.477,0.04296875,-0.0107421875,0.984375,-2.0751953125,0.91552734375,-1.28173828125,101421
2.479,0.0478515625,-0.017578125,0.9833984375,-2.50244140625,0.79345703125,-1.52587890625,101421
2.48,0.0556640625,-0.01171875,0.994140625,-3.11279296875,0.8544921875,-1.0986328125,101421
2.482,0.0595703125,-0.005859375,0.9892578125,-2.38037109375,0.67138671875,-0.8544921875,101421
2.486,0.037109375,-0.0078125,0.998046875,-1.40380859375,0.6103515625,-0.79345703125,101421
2.488,0.0390625,-0.009765625,0.9814453125,-1.64794921875,0.3662109375,-0.48828125,101421
2.489,0.0537109375,-0.015625,0.982421875,-2.25830078125,0.06103515625,-0.79345703125,101421
2.491,0.0478515625,-0.013671875,0.99609375,-2.3193359375,0.732421875,-1.15966796875,101421
2.493,0.056640625,-0.015625,1.0146484375,-1.52587890625,0.8544921875,-1.03759765625,101421
2.496,0.037109375,-0.01171875,1.0068359375,-0.8544921875,0.54931640625,-1.03759765625,101421
2.498,0.0458984375,-0.0166015625,0.994140625,-1.28173828125,1.0986328125,-1.64794921875,101421
2.5,0.0419921875,-0.01171875,0.9892578125,-1.220703125,0.6103515625,-1.28173828125,101421
2.502,0.0439453125,-0.0107421875,0.998046875,-1.708984375,1.15966796875,-0.6103515625,101421
2.504,0.0537109375,-0.0068359375,1.0,-1.52587890625,0.48828125,-1.40380859375,101421
2.505,0.0546875,-0.01171875,1.005859375,-1.03759765625,1.0986328125,-1.3427734375,101421
2.507,0.0439453125,-0.009765625,1.0009765625,-0.9765625,0.732421875,-1.52587890625,101421
2.509,0.0537109375,-0.005859375,0.98828125,-1.03759765625,0.6103515625,-1.5869140625,101421
2.511,0.044921875,-0.0029296875,0.9921875,-1.46484375,0.67138671875,-1.28173828125,101421
2.513,0.0498046875,-0.0087890625,0.984375,-2.8076171875,0.48828125,-1.220703125,101421
2.514,0.048828125,-0.0048828125,0.9931640625,-2.197265625,0.42724609375,-1.28173828125,101421
2.516,0.0478515625,-0.0146484375,0.9951171875,-2.5634765625,0.3662109375,-0.30517578125,101421
2.518,0.05078125,-0.0107421875,1.0048828125,-1.15966796875,0.30517578125,-1.220703125,101421
2.52,0.0517578125,-0.013671875,1.0009765625,0.1220703125,0.79345703125,-1.40380859375,101421
2.522,0.052734375,-0.0078125,0.9892578125,-0.30517578125,0.6103515625,-1.15966796875,101421
2.524,0.0458984375,-0.0078125,0.9833984375,0.18310546875,1.03759765625,-0.9765625,101421
2.527,0.0439453125,-0.0029296875,0.978515625,-1.03759765625,0.54931640625,-1.15966796875,101421
2.529,0.046875,-0.009765625,0.9765625,-2.197265625,0.732421875,-1.28173828125,101421
2.53,0.0458984375,-0.015625,0.9794921875,-3.11279296875,0.8544921875,-0.91552734375,101421
2.532,0.0498046875,-0.0126953125,0.9951171875,-2.86865234375,0.91552734375,-0.9765625,101421
2.534,0.046875,-0.01171875,1.005859375,-2.74658203125,0.67138671875,-0.3662109375,101421
2.536,0.046875,-0.009765625,1.0205078125,-2.13623046875,0.9765625,-1.15966796875,101421
2.538,0.0498046875,-0.0205078125,1.0078125,-1.0986328125,0.3662109375,-0.54931640625,101421
2.539,0.0498046875,-0.0009765625,1.005859375,-0.42724609375,0.6103515625,-1.0986328125,101421
2.541,0.0419921875,-0.0068359375,0.994140625,-0.42724609375,1.28173828125,-0.54931640625,101421
2.543,0.0400390625,-0.0087890625,0.9853515625,-1.28173828125,1.3427734375,-0.732421875,101421
2.546,0.0458984375,-0.01171875,1.0087890625,-2.44140625,1.28173828125,-0.91552734375,101421
2.548,0.05859375,-0.009765625,1.0166015625,-2.50244140625,0.54931640625,-1.0986328125,101421
2.55,0.05078125,-0.0087890625,1.015625,-0.9765625,1.03759765625,-0.8544921875,101421
2.552,0.0546875,-0.009765625,0.9990234375,0.0,0.79345703125,-0.8544921875,101421
2.554,0.0400390625,-0.013671875,0.9921875,0.3662109375,0.42724609375,-1.52587890625,101421
2.557,0.0361328125,-0.0087890625,0.9794921875,-1.40380859375,0.54931640625,-0.8544921875,101421
2.559,0.0380859375,-0.0078125,0.9921875,-2.25830078125,0.79345703125,-0.9765625,101421
2.561,0.0517578125,0.0,0.9912109375,-2.50244140625,0.67138671875,-1.40380859375,101421
2.563,0.0546875,-0.0185546875,0.998046875,-1.40380859375,0.91552734375,-1.3427734375,101421
2.564,0.0419921875,-0.0078125,0.994140625,-0.54931640625,0.42724609375,-1.5869140625,101421
2.567,0.0419921875,-0.015625,0.9873046875,-1.0986328125,0.8544921875,-1.77001953125,101421
2.569,0.0439453125,-0.01171875,0.9716796875,-2.62451171875,0.732421875,-1.708984375,101421
2.571,0.0537109375,-0.0205078125,0.9931640625,-2.9296875,0.3662109375,-1.03759765625,101421
2.573,0.0458984375,-0.013671875,0.99609375,-2.25830078125,0.42724609375,-1.46484375,101421
2.575,0.046875,-0.0146484375,1.0078125,-0.732421875,0.42724609375,-0.8544921875,101421
2.576,0.0517578125,-0.0087890625,1.0,-0.244140625,-0.06103515625,-1.3427734375,101421
2.578,0.044921875,-0.01171875,0.986328125,0.3662109375,1.52587890625,-1.64794921875,101421
2.58,0.0400390625,-0.0126953125,0.984375,-0.48828125,0.8544921875,-0.6103515625,101421
2.582,0.048828125,-0.0029296875,0.9833984375,-1.89208984375,0.67138671875,-1.28173828125,101421
2.584,0.046875,-0.0087890625,0.98046875,-2.44140625,0.48828125,-1.0986328125,101421
2.586,0.0556640625,-0.00390625,0.994140625,-2.86865234375,0.42724609375,-1.52587890625,101421
2.588,0.0478515625,-0.0205078125,0.9990234375,-3.2958984375,0.79345703125,-1.28173828125,101421
2.589,0.0439453125,-0.0078125,1.005859375,-2.50244140625,0.3662109375,-1.953125,101421
2.591,0.0478515625,-0.009765625,1.015625,-2.8076171875,0.67138671875,-1.220703125,101421
2.593,0.0576171875,-0.01171875,1.015625,-1.0986328125,0.3662109375,-0.9765625,101421
2.595,0.0498046875,-0.0068359375,0.998046875,0.3662109375,0.48828125,-0.9765625,101421
2.598,0.048828125,-0.0166015625,1.00390625,0.79345703125,0.3662109375,-0.91552734375,101421
2.6,0.0517578125,-0.009765625,0.9873046875,0.06103515625,1.28173828125,-1.0986328125,101421
2.602,0.046875,-0.0146484375,0.978515625,-1.77001953125,0.244140625,-1.5869140625,101421
2.604,0.0546875,-0.0107421875,0.9873046875,-1.953125,0.67138671875,-1.15966796875,101421
